pos,corr_resp,trials.thisRepN,trials.thisTrialN,trials.thisN,trials.thisIndex,trials_2.thisRepN,trials_2.thisTrialN,trials_2.thisN,trials_2.thisIndex,thisRow.t,notes,trial.started,fixation.started,line1.started,line2.started,line3.started,line4.started,fixation.stopped,probe.started,key_resp.started,trial.stopped,key_resp.keys,key_resp.corr,key_resp.rt,key_resp.duration,participant,session,date,expName,psychopyVersion,frameRate,expStart,
-50,x,0,0,0,0,,,,,0.01202449994161725,,0.007599000004120171,0.01202449994161725,1.0096935000037774,1.0096935000037774,1.0096935000037774,1.0096935000037774,1.0242999999318272,2.007691500009969,2.007691500009969,3.9912758000427857,x,1,1.9724598999600857,None,JC,001,2023-10-15_14h53.28.531,tutorial4,2023.2.2,59.82775590252981,2023-10-15 14h53.41.261315 +0530,
150,v,0,1,1,1,,,,,4.007261999999173,,3.993715799995698,4.007261999999173,5.0065206999424845,5.0065206999424845,5.0065206999424845,5.0065206999424845,5.0065206999424845,6.006211600033566,6.006211600033566,6.657439599977806,v,1,0.6341477000387385,None,JC,001,2023-10-15_14h53.28.531,tutorial4,2023.2.2,59.82775590252981,2023-10-15 14h53.41.261315 +0530,
50,c,0,2,2,2,,,,,6.6727332000155,,6.659114100039005,6.6727332000155,7.672476000036113,7.672476000036113,7.672476000036113,7.672476000036113,7.672476000036113,8.672311599948443,8.672311599948443,9.273665399989113,c,1,0.586327200056985,None,JC,001,2023-10-15_14h53.28.531,tutorial4,2023.2.2,59.82775590252981,2023-10-15 14h53.41.261315 +0530,
-150,z,0,3,3,3,,,,,9.288591800024733,,9.276037100004032,9.288591800024733,10.288516800035723,10.288516800035723,10.288516800035723,10.288516800035723,10.288516800035723,11.288167999940924,11.288167999940924,11.656612999970093,z,1,0.36218359996564686,None,JC,001,2023-10-15_14h53.28.531,tutorial4,2023.2.2,59.82775590252981,2023-10-15 14h53.41.261315 +0530,
-50,x,1,0,4,0,,,,,11.671440799953416,,11.658413299941458,11.671440799953416,12.671147899935022,12.671147899935022,12.671147899935022,12.671147899935022,12.671147899935022,13.670914600021206,13.670914600021206,14.188947699964046,x,1,0.5080540999770164,None,JC,001,2023-10-15_14h53.28.531,tutorial4,2023.2.2,59.82775590252981,2023-10-15 14h53.41.261315 +0530,
150,v,1,1,5,1,,,,,14.204100199975073,,14.19104059995152,14.204100199975073,15.203885899973102,15.203885899973102,15.203885899973102,15.203885899973102,15.203885899973102,16.203700399957597,16.203700399957597,16.587742500007153,v,1,0.3706182000460103,None,JC,001,2023-10-15_14h53.28.531,tutorial4,2023.2.2,59.82775590252981,2023-10-15 14h53.41.261315 +0530,
50,c,1,2,6,2,,,,,16.603622299968265,,16.589131899992935,16.603622299968265,17.60321880003903,17.60321880003903,17.60321880003903,17.60321880003903,17.60321880003903,18.602851500036195,18.602851500036195,18.93754049995914,c,1,0.3301071999594569,None,JC,001,2023-10-15_14h53.28.531,tutorial4,2023.2.2,59.82775590252981,2023-10-15 14h53.41.261315 +0530,
-150,z,1,3,7,3,,,,,18.952762400032952,,18.93958050000947,18.952762400032952,19.95254600001499,19.95254600001499,19.95254600001499,19.95254600001499,19.95254600001499,20.952315200003795,20.952315200003795,21.21998029993847,z,1,0.25106199993751943,None,JC,001,2023-10-15_14h53.28.531,tutorial4,2023.2.2,59.82775590252981,2023-10-15 14h53.41.261315 +0530,
-50,x,2,0,8,0,,,,,21.23541550000664,,21.2211255999282,21.23541550000664,22.235321399988607,22.235321399988607,22.235321399988607,22.235321399988607,22.235321399988607,23.234918999951333,23.234918999951333,23.60285489994567,x,1,0.35466579999774694,None,JC,001,2023-10-15_14h53.28.531,tutorial4,2023.2.2,59.82775590252981,2023-10-15 14h53.41.261315 +0530,
150,v,2,1,9,1,,,,,23.618443300016224,,23.60410759993829,23.618443300016224,24.61802329996135,24.61802329996135,24.61802329996135,24.61802329996135,24.61802329996135,25.617628399981186,25.617628399981186,25.91986000002362,v,1,0.2982956999912858,None,JC,001,2023-10-15_14h53.28.531,tutorial4,2023.2.2,59.82775590252981,2023-10-15 14h53.41.261315 +0530,
50,c,2,2,10,2,,,,,25.93429380003363,,25.922735100029968,25.93429380003363,26.9339468999533,26.9339468999533,26.9339468999533,26.9339468999533,26.9339468999533,27.933648700010963,27.933648700010963,28.351546699996106,c,1,0.4036998999072239,None,JC,001,2023-10-15_14h53.28.531,tutorial4,2023.2.2,59.82775590252981,2023-10-15 14h53.41.261315 +0530,
-150,z,2,3,11,3,,,,,28.366869100020267,,28.35307389998343,28.366869100020267,29.367161800037138,29.367161800037138,29.367161800037138,29.367161800037138,29.367161800037138,30.36642800003756,30.36642800003756,30.66674769995734,z,1,0.2883371999487281,None,JC,001,2023-10-15_14h53.28.531,tutorial4,2023.2.2,59.82775590252981,2023-10-15 14h53.41.261315 +0530,
-50,x,3,0,12,0,,,,,30.682876499951817,,30.6676693999907,30.682876499951817,31.666128300013952,31.666128300013952,31.666128300013952,31.666128300013952,31.68268560001161,32.68259670003317,32.68259670003317,33.067251799977385,x,1,0.382271199952811,None,JC,001,2023-10-15_14h53.28.531,tutorial4,2023.2.2,59.82775590252981,2023-10-15 14h53.41.261315 +0530,
150,v,3,1,13,1,,,,,33.082246499951,,33.06880220002495,33.082246499951,34.08174049993977,34.08174049993977,34.08174049993977,34.08174049993977,34.08174049993977,35.081594399991445,35.081594399991445,35.4839925999986,v,1,0.40040649997536093,None,JC,001,2023-10-15_14h53.28.531,tutorial4,2023.2.2,59.82775590252981,2023-10-15 14h53.41.261315 +0530,
50,c,3,2,14,2,,,,,35.4983056000201,,35.48594749998301,35.4983056000201,36.4978487000335,36.4978487000335,36.4978487000335,36.4978487000335,36.4978487000335,37.49773139995523,37.49773139995523,37.76593250001315,c,1,0.261086400016211,None,JC,001,2023-10-15_14h53.28.531,tutorial4,2023.2.2,59.82775590252981,2023-10-15 14h53.41.261315 +0530,
-150,z,3,3,15,3,,,,,37.780953599954955,,37.76775560004171,37.780953599954955,38.7806891000364,38.7806891000364,38.7806891000364,38.7806891000364,38.7806891000364,39.78052949998528,39.78052949998528,39.91506140003912,z,1,0.13266869995277375,None,JC,001,2023-10-15_14h53.28.531,tutorial4,2023.2.2,59.82775590252981,2023-10-15 14h53.41.261315 +0530,
-50,x,4,0,16,0,,,,,39.930490499944426,,39.91661469999235,39.930490499944426,40.92981390003115,40.92981390003115,40.92981390003115,40.92981390003115,40.92981390003115,41.92979429999832,41.92979429999832,42.34788369992748,x,1,0.4017019000602886,None,JC,001,2023-10-15_14h53.28.531,tutorial4,2023.2.2,59.82775590252981,2023-10-15 14h53.41.261315 +0530,
150,v,4,1,17,1,,,,,42.36303719994612,,42.34950679994654,42.36303719994612,43.363173599937,43.363173599937,43.363173599937,43.363173599937,43.363173599937,44.36253709997982,44.36253709997982,44.680377800017595,v,1,0.30069489998277277,None,JC,001,2023-10-15_14h53.28.531,tutorial4,2023.2.2,59.82775590252981,2023-10-15 14h53.41.261315 +0530,
50,c,4,2,18,2,,,,,44.695783799979836,,44.68184360000305,44.695783799979836,45.69555900001433,45.69555900001433,45.69555900001433,45.69555900001433,45.69555900001433,46.69522180000786,46.69522180000786,47.06260489998385,c,1,0.3534269999945536,None,JC,001,2023-10-15_14h53.28.531,tutorial4,2023.2.2,59.82775590252981,2023-10-15 14h53.41.261315 +0530,
-150,z,4,3,19,3,,,,,47.07844610000029,,47.064011999988,47.07844610000029,48.07810199994128,48.07810199994128,48.07810199994128,48.07810199994128,48.07810199994128,49.07795459998306,49.07795459998306,49.44598820002284,z,1,0.35273980000056326,None,JC,001,2023-10-15_14h53.28.531,tutorial4,2023.2.2,59.82775590252981,2023-10-15 14h53.41.261315 +0530,
-50,x,5,0,20,0,,,,,49.46135669993237,,49.447934499941766,49.46135669993237,50.46079779998399,50.46079779998399,50.46079779998399,50.46079779998399,50.46079779998399,51.460522199980915,51.460522199980915,51.91188739996869,x,1,0.4375705999555066,None,JC,001,2023-10-15_14h53.28.531,tutorial4,2023.2.2,59.82775590252981,2023-10-15 14h53.41.261315 +0530,
150,v,5,1,21,1,,,,,51.927430500043556,,51.913607500027865,51.927430500043556,52.92722740001045,52.92722740001045,52.92722740001045,52.92722740001045,52.92722740001045,53.92653459997382,53.92653459997382,54.24449900002219,v,1,0.3043799999868497,None,JC,001,2023-10-15_14h53.28.531,tutorial4,2023.2.2,59.82775590252981,2023-10-15 14h53.41.261315 +0530,
50,c,5,2,22,2,,,,,54.259799999999814,,54.24613949994091,54.259799999999814,55.259959299932234,55.259959299932234,55.259959299932234,55.259959299932234,55.259959299932234,56.25944709999021,56.25944709999021,56.54370839998592,c,1,0.27555730007588863,None,JC,001,2023-10-15_14h53.28.531,tutorial4,2023.2.2,59.82775590252981,2023-10-15 14h53.41.261315 +0530,
-150,z,5,3,23,3,,,,,56.55925859999843,,56.54509589995723,56.55925859999843,57.5590499000391,57.5590499000391,57.5590499000391,57.5590499000391,57.5590499000391,58.558877200004645,58.558877200004645,58.843161599943414,z,1,0.2782383000012487,None,JC,001,2023-10-15_14h53.28.531,tutorial4,2023.2.2,59.82775590252981,2023-10-15 14h53.41.261315 +0530,
-50,x,6,0,24,0,,,,,58.85852729994804,,58.8448311999673,58.85852729994804,59.85830520000309,59.85830520000309,59.85830520000309,59.85830520000309,59.85830520000309,60.85808149992954,60.85808149992954,61.376632099971175,x,1,0.5064479000866413,None,JC,001,2023-10-15_14h53.28.531,tutorial4,2023.2.2,59.82775590252981,2023-10-15 14h53.41.261315 +0530,
150,v,6,1,25,1,,,,,61.391199599951506,,61.3793316000374,61.391199599951506,62.39087420003489,62.39087420003489,62.39087420003489,62.39087420003489,62.39087420003489,63.39088800002355,63.39088800002355,63.441648999927565,v,1,0.03876480006147176,None,JC,001,2023-10-15_14h53.28.531,tutorial4,2023.2.2,59.82775590252981,2023-10-15 14h53.41.261315 +0530,
50,c,6,2,26,2,,,,,63.45712639996782,,63.44296539993957,63.45712639996782,64.4572521999944,64.4572521999944,64.4572521999944,64.4572521999944,64.4572521999944,65.45689110003877,65.45689110003877,65.74145199998748,c,1,0.2715103999944404,None,JC,001,2023-10-15_14h53.28.531,tutorial4,2023.2.2,59.82775590252981,2023-10-15 14h53.41.261315 +0530,
-150,z,6,3,27,3,,,,,65.75674330000766,,65.74306240002625,65.75674330000766,66.7562450999394,66.7562450999394,66.7562450999394,66.7562450999394,66.7562450999394,67.7562608999433,67.7562608999433,67.89102400001138,z,1,0.1260777999414131,None,JC,001,2023-10-15_14h53.28.531,tutorial4,2023.2.2,59.82775590252981,2023-10-15 14h53.41.261315 +0530,
-50,x,7,0,28,0,,,,,67.90610170003492,,67.89263599994592,67.90610170003492,68.90573210001457,68.90573210001457,68.90573210001457,68.90573210001457,68.90573210001457,69.90577329997905,69.90577329997905,70.72277919994667,x,1,0.8067646999843419,None,JC,001,2023-10-15_14h53.28.531,tutorial4,2023.2.2,59.82775590252981,2023-10-15 14h53.41.261315 +0530,
150,v,7,1,29,1,,,,,70.7918622000143,,70.72417279996444,70.7918622000143,71.73841600003652,71.73841600003652,71.73841600003652,71.73841600003652,71.80484779994003,72.73812799993902,72.73812799993902,72.88893539994024,v,1,0.1421639999607578,None,JC,001,2023-10-15_14h53.28.531,tutorial4,2023.2.2,59.82775590252981,2023-10-15 14h53.41.261315 +0530,
50,c,7,2,30,2,,,,,72.90442869998515,,72.89021290000528,72.90442869998515,73.90450900001451,73.90450900001451,73.90450900001451,73.90450900001451,73.90450900001451,74.90437330002896,74.90437330002896,75.25504540000111,c,1,0.3389212000183761,None,JC,001,2023-10-15_14h53.28.531,tutorial4,2023.2.2,59.82775590252981,2023-10-15 14h53.41.261315 +0530,
-150,z,7,3,31,3,,,,,75.27068369998597,,75.25633849995211,75.27068369998597,76.27051990001928,76.27051990001928,76.27051990001928,76.27051990001928,76.27051990001928,77.27017359994352,77.27017359994352,77.35454169998411,z,1,0.0812166000250727,None,JC,001,2023-10-15_14h53.28.531,tutorial4,2023.2.2,59.82775590252981,2023-10-15 14h53.41.261315 +0530,
-50,x,8,0,32,0,,,,,77.37034569995012,,77.35577839997131,77.37034569995012,78.3698185000103,78.3698185000103,78.3698185000103,78.3698185000103,78.3698185000103,79.36935829999857,79.36935829999857,79.68683679995593,x,1,0.30794690002221614,None,JC,001,2023-10-15_14h53.28.531,tutorial4,2023.2.2,59.82775590252981,2023-10-15 14h53.41.261315 +0530,
150,v,8,1,33,1,,,,,79.70261359994765,,79.68792449997272,79.70261359994765,80.7023117999779,80.7023117999779,80.7023117999779,80.7023117999779,80.7023117999779,81.70260259998031,81.70260259998031,82.03688130003866,v,1,0.3306546000530943,None,JC,001,2023-10-15_14h53.28.531,tutorial4,2023.2.2,59.82775590252981,2023-10-15 14h53.41.261315 +0530,
50,c,8,2,34,2,,,,,82.05226519994903,,82.03862090001348,82.05226519994903,83.05215080000926,83.05215080000926,83.05215080000926,83.05215080000926,83.05215080000926,84.05179789999966,84.05179789999966,84.35264529997949,c,1,0.2863599000265822,None,JC,001,2023-10-15_14h53.28.531,tutorial4,2023.2.2,59.82775590252981,2023-10-15 14h53.41.261315 +0530,
-150,z,8,3,35,3,,,,,84.36829809995834,,84.35405309998896,84.36829809995834,85.36883589997888,85.36883589997888,85.36883589997888,85.36883589997888,85.36883589997888,86.3677888000384,86.3677888000384,87.38561110000592,z,1,1.0021905000321567,None,JC,001,2023-10-15_14h53.28.531,tutorial4,2023.2.2,59.82775590252981,2023-10-15 14h53.41.261315 +0530,
-50,x,9,0,36,0,,,,,87.40094359999057,,87.38692319998518,87.40094359999057,88.40047510003205,88.40047510003205,88.40047510003205,88.40047510003205,88.40047510003205,89.4002834999701,89.4002834999701,89.73603309993632,x,1,0.32419029995799065,None,JC,001,2023-10-15_14h53.28.531,tutorial4,2023.2.2,59.82775590252981,2023-10-15 14h53.41.261315 +0530,
150,v,9,1,37,1,,,,,89.75036309997085,,89.7390022999607,89.75036309997085,90.75012580002658,90.75012580002658,90.75012580002658,90.75012580002658,90.75012580002658,91.74965699994937,91.74965699994937,91.98441000003368,v,1,0.23091459996066988,None,JC,001,2023-10-15_14h53.28.531,tutorial4,2023.2.2,59.82775590252981,2023-10-15 14h53.41.261315 +0530,
50,c,9,2,38,2,,,,,91.99975449999329,,91.98654319997877,91.99975449999329,92.9993880999973,92.9993880999973,92.9993880999973,92.9993880999973,92.9993880999973,93.99919430003501,93.99919430003501,94.73326579993591,c,1,0.722413600073196,None,JC,001,2023-10-15_14h53.28.531,tutorial4,2023.2.2,59.82775590252981,2023-10-15 14h53.41.261315 +0530,
-150,z,9,3,39,3,,,,,94.74880539998412,,94.73449229996186,94.74880539998412,95.74865690001752,95.74865690001752,95.74865690001752,95.74865690001752,95.74865690001752,96.74824590003118,96.74824590003118,97.03241290000733,z,1,0.2710285000503063,None,JC,001,2023-10-15_14h53.28.531,tutorial4,2023.2.2,59.82775590252981,2023-10-15 14h53.41.261315 +0530,
-50,x,10,0,40,0,,,,,97.04806880000979,,97.03362500004005,97.04806880000979,98.04795349994674,98.04795349994674,98.04795349994674,98.04795349994674,98.04795349994674,99.04755349992774,99.04755349992774,99.41577850002795,x,1,0.36151399998925626,None,JC,001,2023-10-15_14h53.28.531,tutorial4,2023.2.2,59.82775590252981,2023-10-15 14h53.41.261315 +0530,
150,v,10,1,41,1,,,,,99.43088789994363,,99.41748499998357,99.43088789994363,100.43060299998615,100.43060299998615,100.43060299998615,100.43060299998615,100.43060299998615,101.43037019995973,101.43037019995973,101.76449079997838,v,1,0.32274460000917315,None,JC,001,2023-10-15_14h53.28.531,tutorial4,2023.2.2,59.82775590252981,2023-10-15 14h53.41.261315 +0530,
50,c,10,2,42,2,,,,,101.780387399951,,101.76562289998401,101.780387399951,102.77999239997007,102.77999239997007,102.77999239997007,102.77999239997007,102.77999239997007,103.77982659998816,103.77982659998816,104.63144339993596,c,1,0.8353503999533132,None,JC,001,2023-10-15_14h53.28.531,tutorial4,2023.2.2,59.82775590252981,2023-10-15 14h53.41.261315 +0530,
-150,z,10,3,43,3,,,,,104.64615379995666,,104.63409429998137,104.64615379995666,105.645881799981,105.645881799981,105.645881799981,105.645881799981,105.645881799981,106.64564150001388,106.64564150001388,106.91352870000992,z,1,0.2656626000534743,None,JC,001,2023-10-15_14h53.28.531,tutorial4,2023.2.2,59.82775590252981,2023-10-15 14h53.41.261315 +0530,
-50,x,11,0,44,0,,,,,106.92887229996268,,106.91499489999842,106.92887229996268,107.9286931999959,107.9286931999959,107.9286931999959,107.9286931999959,107.9286931999959,108.92838139995001,108.92838139995001,109.2959991999669,x,1,0.36266539990901947,None,JC,001,2023-10-15_14h53.28.531,tutorial4,2023.2.2,59.82775590252981,2023-10-15 14h53.41.261315 +0530,
150,v,11,1,45,1,,,,,109.31157339992933,,109.29731719999108,109.31157339992933,110.31115399999544,110.31115399999544,110.31115399999544,110.31115399999544,110.31115399999544,111.3109748000279,111.3109748000279,111.66167059994768,v,1,0.3463403999339789,None,JC,001,2023-10-15_14h53.28.531,tutorial4,2023.2.2,59.82775590252981,2023-10-15 14h53.41.261315 +0530,
50,c,11,2,46,2,,,,,111.67766629997641,,111.66295339993667,111.67766629997641,112.6774036999559,112.6774036999559,112.6774036999559,112.6774036999559,112.6774036999559,113.67709489993285,113.67709489993285,113.99497769994196,c,1,0.3163044999819249,None,JC,001,2023-10-15_14h53.28.531,tutorial4,2023.2.2,59.82775590252981,2023-10-15 14h53.41.261315 +0530,
-150,z,11,3,47,3,,,,,114.0105206000153,,113.99669960001484,114.0105206000153,115.00985429994762,115.00985429994762,115.00985429994762,115.00985429994762,115.00985429994762,116.00971140002366,116.00971140002366,116.26126589998603,z,1,0.24030549998860806,None,JC,001,2023-10-15_14h53.28.531,tutorial4,2023.2.2,59.82775590252981,2023-10-15 14h53.41.261315 +0530,
-50,x,12,0,48,0,,,,,116.27629569999408,,116.2633737999713,116.27629569999408,117.27604979998432,117.27604979998432,117.27604979998432,117.27604979998432,117.27604979998432,118.27577159996144,118.27577159996144,118.64359989995137,x,1,0.35140669997781515,None,JC,001,2023-10-15_14h53.28.531,tutorial4,2023.2.2,59.82775590252981,2023-10-15 14h53.41.261315 +0530,
150,v,12,1,49,1,,,,,118.6591110000154,,118.64516169996932,118.6591110000154,119.658871899941,119.658871899941,119.658871899941,119.658871899941,119.658871899941,120.65857510000933,120.65857510000933,121.04332249995787,v,1,0.36738559999503195,None,JC,001,2023-10-15_14h53.28.531,tutorial4,2023.2.2,59.82775590252981,2023-10-15 14h53.41.261315 +0530,
50,c,12,2,50,2,,,,,121.05840249999892,,121.04512539994903,121.05840249999892,122.0581970999483,122.0581970999483,122.0581970999483,122.0581970999483,122.0581970999483,123.05766019993462,123.05766019993462,123.39255769993179,c,1,0.3269911000970751,None,JC,001,2023-10-15_14h53.28.531,tutorial4,2023.2.2,59.82775590252981,2023-10-15 14h53.41.261315 +0530,
-150,z,12,3,51,3,,,,,123.40761560003739,,123.39418820000719,123.40761560003739,124.4076783999335,124.4076783999335,124.4076783999335,124.4076783999335,124.4076783999335,125.40724750002846,125.40724750002846,125.42503959999885,z,1,0.0047647999599576,None,JC,001,2023-10-15_14h53.28.531,tutorial4,2023.2.2,59.82775590252981,2023-10-15 14h53.41.261315 +0530,
-50,x,13,0,52,0,,,,,125.44043930002954,,125.42655979993287,125.44043930002954,126.44018279993907,126.44018279993907,126.44018279993907,126.44018279993907,126.44018279993907,127.44002239999827,127.44002239999827,127.84106689994223,x,1,0.39910109993070364,None,JC,001,2023-10-15_14h53.28.531,tutorial4,2023.2.2,59.82775590252981,2023-10-15 14h53.41.261315 +0530,
150,v,13,1,53,1,,,,,127.85640749998856,,127.84234800003469,127.85640749998856,128.85637569997925,128.85637569997925,128.85637569997925,128.85637569997925,128.85637569997925,129.85595029999968,129.85595029999968,130.34031530003995,v,1,0.4783647999865934,None,JC,001,2023-10-15_14h53.28.531,tutorial4,2023.2.2,59.82775590252981,2023-10-15 14h53.41.261315 +0530,
50,c,13,2,54,2,,,,,130.35612010001205,,130.34185980004258,130.35612010001205,131.35558600001968,131.35558600001968,131.35558600001968,131.35558600001968,131.35558600001968,132.35520909994375,132.35520909994375,132.7067600999726,c,1,0.3490213999757543,None,JC,001,2023-10-15_14h53.28.531,tutorial4,2023.2.2,59.82775590252981,2023-10-15 14h53.41.261315 +0530,
-150,z,13,3,55,3,,,,,132.72191129997373,,132.70858470001258,132.72191129997373,133.72178140003234,133.72178140003234,133.72178140003234,133.72178140003234,133.72178140003234,134.72155679995194,134.72155679995194,134.9724303999683,z,1,0.2480146000161767,None,JC,001,2023-10-15_14h53.28.531,tutorial4,2023.2.2,59.82775590252981,2023-10-15 14h53.41.261315 +0530,
-50,x,14,0,56,0,,,,,134.98796369996853,,134.97414199996274,134.98796369996853,135.98757120000664,135.98757120000664,135.98757120000664,135.98757120000664,135.98757120000664,136.98742120002862,136.98742120002862,137.57164989993908,x,1,0.5803551999852061,None,JC,001,2023-10-15_14h53.28.531,tutorial4,2023.2.2,59.82775590252981,2023-10-15 14h53.41.261315 +0530,
150,v,14,1,57,1,,,,,137.5872512999922,,137.57326410000678,137.5872512999922,138.58732099994086,138.58732099994086,138.58732099994086,138.58732099994086,138.58732099994086,139.58675080002286,139.58675080002286,140.22096429998055,v,1,0.6308348999591544,None,JC,001,2023-10-15_14h53.28.531,tutorial4,2023.2.2,59.82775590252981,2023-10-15 14h53.41.261315 +0530,
50,c,14,2,58,2,,,,,140.2364491999615,,140.22229810000863,140.2364491999615,141.23614239995368,141.23614239995368,141.23614239995368,141.23614239995368,141.23614239995368,142.2360553999897,142.2360553999897,142.57049990002997,c,1,0.3175384000642225,None,JC,001,2023-10-15_14h53.28.531,tutorial4,2023.2.2,59.82775590252981,2023-10-15 14h53.41.261315 +0530,
-150,z,14,3,59,3,,,,,142.58580719993915,,142.57232169993222,142.58580719993915,143.58555389998946,143.58555389998946,143.58555389998946,143.58555389998946,143.58555389998946,144.58522509993054,144.58522509993054,144.8862393000163,z,1,0.2984412000514567,None,JC,001,2023-10-15_14h53.28.531,tutorial4,2023.2.2,59.82775590252981,2023-10-15 14h53.41.261315 +0530,
-50,x,15,0,60,0,,,,,144.90180889994372,,144.88771030004136,144.90180889994372,145.9015398999909,145.9015398999909,145.9015398999909,145.9015398999909,145.9015398999909,146.90158039995003,146.90158039995003,147.28554389998317,x,1,0.3751228000037372,None,JC,001,2023-10-15_14h53.28.531,tutorial4,2023.2.2,59.82775590252981,2023-10-15 14h53.41.261315 +0530,
150,v,15,1,61,1,,,,,147.30112499999814,,147.2870081999572,147.30112499999814,148.30138660001103,148.30138660001103,148.30138660001103,148.30138660001103,148.30138660001103,149.30050090001896,149.30050090001896,149.61853939993307,v,1,0.31267530005425215,None,JC,001,2023-10-15_14h53.28.531,tutorial4,2023.2.2,59.82775590252981,2023-10-15 14h53.41.261315 +0530,
50,c,15,2,62,2,,,,,149.63382200000342,,149.6200414999621,149.63382200000342,150.6338605999481,150.6338605999481,150.6338605999481,150.6338605999481,150.6338605999481,151.63332000002265,151.63332000002265,152.01767520001158,c,1,0.3763981000520289,None,JC,001,2023-10-15_14h53.28.531,tutorial4,2023.2.2,59.82775590252981,2023-10-15 14h53.41.261315 +0530,
-150,z,15,3,63,3,,,,,152.03327459993307,,152.01909049996175,152.03327459993307,153.03286119992845,153.03286119992845,153.03286119992845,153.03286119992845,153.03286119992845,154.03295719996095,154.03295719996095,154.33305699995253,z,1,0.28349349997006357,None,JC,001,2023-10-15_14h53.28.531,tutorial4,2023.2.2,59.82775590252981,2023-10-15 14h53.41.261315 +0530,
-50,x,16,0,64,0,,,,,154.34924939996563,,154.33439089998137,154.34924939996563,155.34916560002603,155.34916560002603,155.34916560002603,155.34916560002603,155.34916560002603,156.3488899000222,156.3488899000222,157.14994989999104,x,1,0.7920472000259906,None,JC,001,2023-10-15_14h53.28.531,tutorial4,2023.2.2,59.82775590252981,2023-10-15 14h53.41.261315 +0530,
150,v,16,1,65,1,,,,,157.16517950000707,,157.1517601000378,157.16517950000707,158.1651810000185,158.1651810000185,158.1651810000185,158.1651810000185,158.1651810000185,159.16463559994008,159.16463559994008,159.5993186000269,v,1,0.42844339995644987,None,JC,001,2023-10-15_14h53.28.531,tutorial4,2023.2.2,59.82775590252981,2023-10-15 14h53.41.261315 +0530,
50,c,16,2,66,2,,,,,159.61445610004012,,159.60066949995235,159.61445610004012,160.61431750003248,160.61431750003248,160.61431750003248,160.61431750003248,160.61431750003248,161.61366919998545,161.61366919998545,161.89919849997386,c,1,0.28224490000866354,None,JC,001,2023-10-15_14h53.28.531,tutorial4,2023.2.2,59.82775590252981,2023-10-15 14h53.41.261315 +0530,
-150,z,16,3,67,3,,,,,161.91389750002418,,161.90164870000444,161.91389750002418,162.91327469993848,162.91327469993848,162.91327469993848,162.91327469993848,162.91327469993848,163.91348300001118,163.91348300001118,164.23128259996884,z,1,0.30187060008756816,None,JC,001,2023-10-15_14h53.28.531,tutorial4,2023.2.2,59.82775590252981,2023-10-15 14h53.41.261315 +0530,
-50,x,17,0,68,0,,,,,164.24621439992916,,164.23298580001574,164.24621439992916,165.24646900000516,165.24646900000516,165.24646900000516,165.24646900000516,165.24646900000516,166.24601679993793,166.24601679993793,166.68047469994053,x,1,0.4307705999817699,None,JC,001,2023-10-15_14h53.28.531,tutorial4,2023.2.2,59.82775590252981,2023-10-15 14h53.41.261315 +0530,
150,v,17,1,69,1,,,,,166.69613769999705,,166.68220659997314,166.69613769999705,167.69594959996175,167.69594959996175,167.69594959996175,167.69594959996175,167.69594959996175,168.69540500000585,168.69540500000585,168.9964491999708,v,1,0.29736860003322363,None,JC,001,2023-10-15_14h53.28.531,tutorial4,2023.2.2,59.82775590252981,2023-10-15 14h53.41.261315 +0530,
50,c,17,2,70,2,,,,,169.01178569998592,,168.99773619999178,169.01178569998592,170.01174680003896,170.01174680003896,170.01174680003896,170.01174680003896,170.01174680003896,171.011376200011,171.011376200011,171.36303729994688,c,1,0.35014390002470464,None,JC,001,2023-10-15_14h53.28.531,tutorial4,2023.2.2,59.82775590252981,2023-10-15 14h53.41.261315 +0530,
-150,z,17,3,71,3,,,,,171.37795600004029,,171.364564999938,171.37795600004029,172.37801350001246,172.37801350001246,172.37801350001246,172.37801350001246,172.37801350001246,173.37745979998726,173.37745979998726,173.67869820003398,z,1,0.28419030003715307,None,JC,001,2023-10-15_14h53.28.531,tutorial4,2023.2.2,59.82775590252981,2023-10-15 14h53.41.261315 +0530,
-50,x,18,0,72,0,,,,,173.69410129997414,,173.68041229993105,173.69410129997414,174.69375149998814,174.69375149998814,174.69375149998814,174.69375149998814,174.69375149998814,175.6935410000151,175.6935410000151,176.21134199993685,x,1,0.5131960000144318,None,JC,001,2023-10-15_14h53.28.531,tutorial4,2023.2.2,59.82775590252981,2023-10-15 14h53.41.261315 +0530,
150,v,18,1,73,1,,,,,176.22652329993434,,176.2132843999425,176.22652329993434,177.22642860002816,177.22642860002816,177.22642860002816,177.22642860002816,177.22642860002816,178.22644020000007,178.22644020000007,178.5442179000238,v,1,0.309986500069499,None,JC,001,2023-10-15_14h53.28.531,tutorial4,2023.2.2,59.82775590252981,2023-10-15 14h53.41.261315 +0530,
50,c,18,2,74,2,,,,,178.5593857000349,,178.5461802999489,178.5593857000349,179.55920519994106,179.55920519994106,179.55920519994106,179.55920519994106,179.55920519994106,180.55888190004043,180.55888190004043,180.94321980001405,c,1,0.3738752000499517,None,JC,001,2023-10-15_14h53.28.531,tutorial4,2023.2.2,59.82775590252981,2023-10-15 14h53.41.261315 +0530,
-150,z,18,3,75,3,,,,,180.95862229994964,,180.94476460001897,180.95862229994964,181.9588262999896,181.9588262999896,181.9588262999896,181.9588262999896,181.9588262999896,182.95845459995326,182.95845459995326,183.3430097999517,z,1,0.3828703999752179,None,JC,001,2023-10-15_14h53.28.531,tutorial4,2023.2.2,59.82775590252981,2023-10-15 14h53.41.261315 +0530,
-50,x,19,0,76,0,,,,,183.35785709996708,,183.34430250001606,183.35785709996708,184.35761790000834,184.35761790000834,184.35761790000834,184.35761790000834,184.35761790000834,185.3573853999842,185.3573853999842,185.7747494999785,x,1,0.4008281999267638,None,JC,001,2023-10-15_14h53.28.531,tutorial4,2023.2.2,59.82775590252981,2023-10-15 14h53.41.261315 +0530,
150,v,19,1,77,1,,,,,185.79064160003327,,185.77599380002357,185.79064160003327,186.790456000017,186.790456000017,186.790456000017,186.790456000017,186.790456000017,187.79017960000783,187.79017960000783,188.09131129994057,v,1,0.2941422000294551,None,JC,001,2023-10-15_14h53.28.531,tutorial4,2023.2.2,59.82775590252981,2023-10-15 14h53.41.261315 +0530,
50,c,19,2,78,2,,,,,188.10667549993377,,188.09260430000722,188.10667549993377,189.10682079999242,189.10682079999242,189.10682079999242,189.10682079999242,189.10682079999242,190.10651810001582,190.10651810001582,190.47430879995227,c,1,0.3662404000060633,None,JC,001,2023-10-15_14h53.28.531,tutorial4,2023.2.2,59.82775590252981,2023-10-15 14h53.41.261315 +0530,
-150,z,19,3,79,3,,,,,190.48926679999568,,190.4759713000385,190.48926679999568,191.48896989994682,191.48896989994682,191.48896989994682,191.48896989994682,191.48896989994682,192.4889580999734,192.4889580999734,193.00703540001996,z,1,0.5103064000140876,None,JC,001,2023-10-15_14h53.28.531,tutorial4,2023.2.2,59.82775590252981,2023-10-15 14h53.41.261315 +0530,
-50,x,20,0,80,0,,,,,193.0218581999652,,193.00924279994797,193.0218581999652,194.0221060999902,194.0221060999902,194.0221060999902,194.0221060999902,194.0221060999902,195.0215334999375,195.0215334999375,195.7738586999476,x,1,0.7502239999594167,None,JC,001,2023-10-15_14h53.28.531,tutorial4,2023.2.2,59.82775590252981,2023-10-15 14h53.41.261315 +0530,
150,v,20,1,81,1,,,,,195.78811940003652,,195.77627150004264,195.78811940003652,196.7877905999776,196.7877905999776,196.7877905999776,196.7877905999776,196.7877905999776,197.78742910001893,197.78742910001893,198.08835899992846,v,1,0.2924984000856057,None,JC,001,2023-10-15_14h53.28.531,tutorial4,2023.2.2,59.82775590252981,2023-10-15 14h53.41.261315 +0530,
50,c,20,2,82,2,,,,,198.1038918000413,,198.0898099000333,198.1038918000413,199.1040592000354,199.1040592000354,199.1040592000354,199.1040592000354,199.1040592000354,200.10379630001262,200.10379630001262,200.6045393999666,c,1,0.48449950001668185,None,JC,001,2023-10-15_14h53.28.531,tutorial4,2023.2.2,59.82775590252981,2023-10-15 14h53.41.261315 +0530,
-150,z,20,3,83,3,,,,,200.61990199994761,,200.60610530001577,200.61990199994761,201.61981730000116,201.61981730000116,201.61981730000116,201.61981730000116,201.61981730000116,202.61947389994748,202.61947389994748,203.05409699992742,z,1,0.42177630006335676,None,JC,001,2023-10-15_14h53.28.531,tutorial4,2023.2.2,59.82775590252981,2023-10-15 14h53.41.261315 +0530,
-50,x,21,0,84,0,,,,,203.06934970000293,,203.05571530002635,203.06934970000293,204.069352600025,204.069352600025,204.069352600025,204.069352600025,204.069352600025,205.0689521000022,205.0689521000022,205.55287320003845,x,1,0.4690689999843016,None,JC,001,2023-10-15_14h53.28.531,tutorial4,2023.2.2,59.82775590252981,2023-10-15 14h53.41.261315 +0530,
150,v,21,1,85,1,,,,,205.5686934000114,,205.55409520003013,205.5686934000114,206.5685047999723,206.5685047999723,206.5685047999723,206.5685047999723,206.5685047999723,207.56823959993199,207.56823959993199,207.9523157000076,v,1,0.3724778000032529,None,JC,001,2023-10-15_14h53.28.531,tutorial4,2023.2.2,59.82775590252981,2023-10-15 14h53.41.261315 +0530,
50,c,21,2,86,2,,,,,207.96798269997817,,207.9535868000239,207.96798269997817,208.96782200003508,208.96782200003508,208.96782200003508,208.96782200003508,208.96782200003508,209.96732789999805,209.96732789999805,210.31842469994444,c,1,0.3418904999271035,None,JC,001,2023-10-15_14h53.28.531,tutorial4,2023.2.2,59.82775590252981,2023-10-15 14h53.41.261315 +0530,
-150,z,21,3,87,3,,,,,210.3340352999512,,210.31985049997456,210.3340352999512,211.33381580002606,211.33381580002606,211.33381580002606,211.33381580002606,211.33381580002606,212.33337310003117,212.33337310003117,212.70094479992986,z,1,0.35367790004238486,None,JC,001,2023-10-15_14h53.28.531,tutorial4,2023.2.2,59.82775590252981,2023-10-15 14h53.41.261315 +0530,
-50,x,22,0,88,0,,,,,212.71676069998648,,212.70206559996586,212.71676069998648,213.71655479993206,213.71655479993206,213.71655479993206,213.71655479993206,213.71655479993206,214.7161784999771,214.7161784999771,215.7173220999539,x,1,0.9947846999857575,None,JC,001,2023-10-15_14h53.28.531,tutorial4,2023.2.2,59.82775590252981,2023-10-15 14h53.41.261315 +0530,
150,v,22,1,89,1,,,,,215.7326290999772,,215.71867989993189,215.7326290999772,216.73236319993157,216.73236319993157,216.73236319993157,216.73236319993157,216.73236319993157,217.73205719992984,217.73205719992984,218.00016049994156,v,1,0.2623088000109419,None,JC,001,2023-10-15_14h53.28.531,tutorial4,2023.2.2,59.82775590252981,2023-10-15 14h53.41.261315 +0530,
50,c,22,2,90,2,,,,,218.0155187000055,,218.00179210002534,218.0155187000055,219.01526549994014,219.01526549994014,219.01526549994014,219.01526549994014,219.01526549994014,220.01472390000708,220.01472390000708,220.34922199998982,c,1,0.32653199997730553,None,JC,001,2023-10-15_14h53.28.531,tutorial4,2023.2.2,59.82775590252981,2023-10-15 14h53.41.261315 +0530,
-150,z,22,3,91,3,,,,,220.36475109995808,,220.3507527000038,220.36475109995808,221.3644409000408,221.3644409000408,221.3644409000408,221.3644409000408,221.3644409000408,222.36415789998136,222.36415789998136,222.6984669000376,z,1,0.32704330002889037,None,JC,001,2023-10-15_14h53.28.531,tutorial4,2023.2.2,59.82775590252981,2023-10-15 14h53.41.261315 +0530,
-50,x,23,0,92,0,,,,,222.713830600027,,222.69992569996975,222.713830600027,223.71383739996236,223.71383739996236,223.71383739996236,223.71383739996236,223.71383739996236,224.71377050003503,224.71377050003503,225.29809209995437,x,1,0.5786042000399902,None,JC,001,2023-10-15_14h53.28.531,tutorial4,2023.2.2,59.82775590252981,2023-10-15 14h53.41.261315 +0530,
150,v,23,1,93,1,,,,,225.31329900003038,,225.3000276000239,225.31329900003038,226.31369460001588,226.31369460001588,226.31369460001588,226.31369460001588,226.31369460001588,227.3128697000211,227.3128697000211,227.74748479994014,v,1,0.42482359998393804,None,JC,001,2023-10-15_14h53.28.531,tutorial4,2023.2.2,59.82775590252981,2023-10-15 14h53.41.261315 +0530,
50,c,23,2,94,2,,,,,227.7629582999507,,227.74902989994735,227.7629582999507,228.76269040000625,228.76269040000625,228.76269040000625,228.76269040000625,228.76269040000625,229.76210519997403,229.76210519997403,229.99652809998952,c,1,0.2296405000379309,None,JC,001,2023-10-15_14h53.28.531,tutorial4,2023.2.2,59.82775590252981,2023-10-15 14h53.41.261315 +0530,
-150,z,23,3,95,3,,,,,230.01197879994288,,229.9980261999881,230.01197879994288,231.0121242000023,231.0121242000023,231.0121242000023,231.0121242000023,231.0121242000023,232.01150260004215,232.01150260004215,232.24588459997904,z,1,0.21863060002215207,None,JC,001,2023-10-15_14h53.28.531,tutorial4,2023.2.2,59.82775590252981,2023-10-15 14h53.41.261315 +0530,
-50,x,24,0,96,0,,,,,232.26141050003935,,232.24734140001237,232.26141050003935,233.26124250004068,233.26124250004068,233.26124250004068,233.26124250004068,233.26124250004068,234.2609214000404,234.2609214000404,234.7620537999319,x,1,0.4920766999712214,None,JC,001,2023-10-15_14h53.28.531,tutorial4,2023.2.2,59.82775590252981,2023-10-15 14h53.41.261315 +0530,
150,v,24,1,97,1,,,,,234.7774470000295,,234.76378949999344,234.7774470000295,235.7771506999852,235.7771506999852,235.7771506999852,235.7771506999852,235.7771506999852,236.77694749995135,236.77694749995135,237.02841419994365,v,1,0.24261970003135502,None,JC,001,2023-10-15_14h53.28.531,tutorial4,2023.2.2,59.82775590252981,2023-10-15 14h53.41.261315 +0530,
50,c,24,2,98,2,,,,,237.04322089999914,,237.0301512000151,237.04322089999914,238.04304140002932,238.04304140002932,238.04304140002932,238.04304140002932,238.04304140002932,239.04272749996744,239.04272749996744,239.42762890004087,c,1,0.3755345999961719,None,JC,001,2023-10-15_14h53.28.531,tutorial4,2023.2.2,59.82775590252981,2023-10-15 14h53.41.261315 +0530,
-150,z,24,3,99,3,,,,,239.44271969993133,,239.42918289999943,239.44271969993133,240.44261070003267,240.44261070003267,240.44261070003267,240.44261070003267,240.44261070003267,241.4422206999734,241.4422206999734,241.7937108000042,z,1,0.3434520000591874,None,JC,001,2023-10-15_14h53.28.531,tutorial4,2023.2.2,59.82775590252981,2023-10-15 14h53.41.261315 +0530,
-50,x,25,0,100,0,,,,,241.80913279997185,,241.79525660001673,241.80913279997185,242.80850389995612,242.80850389995612,242.80850389995612,242.80850389995612,242.80850389995612,243.8081657999428,243.8081657999428,244.19256580004003,x,1,0.38087699993047863,None,JC,001,2023-10-15_14h53.28.531,tutorial4,2023.2.2,59.82775590252981,2023-10-15 14h53.41.261315 +0530,
150,v,25,1,101,1,,,,,244.20820480003022,,244.1941784999799,244.20820480003022,245.2079456000356,245.2079456000356,245.2079456000356,245.2079456000356,245.2079456000356,246.20743289997336,246.20743289997336,246.42523519997485,v,1,0.20931199996266514,None,JC,001,2023-10-15_14h53.28.531,tutorial4,2023.2.2,59.82775590252981,2023-10-15 14h53.41.261315 +0530,
50,c,25,2,102,2,,,,,246.44091220002156,,246.42656069993973,246.44091220002156,247.4406002999749,247.4406002999749,247.4406002999749,247.4406002999749,247.4406002999749,248.44019809993915,248.44019809993915,248.82532539998647,c,1,0.37129619996994734,None,JC,001,2023-10-15_14h53.28.531,tutorial4,2023.2.2,59.82775590252981,2023-10-15 14h53.41.261315 +0530,
-150,z,25,3,103,3,,,,,248.84022220002953,,248.82732909999322,248.84022220002953,249.84008210001048,249.84008210001048,249.84008210001048,249.84008210001048,249.84008210001048,250.83966769999824,250.83966769999824,251.2579873999348,z,1,0.4098860000958666,None,JC,001,2023-10-15_14h53.28.531,tutorial4,2023.2.2,59.82775590252981,2023-10-15 14h53.41.261315 +0530,
-50,x,26,0,104,0,,,,,251.2729756999761,,251.2600642000325,251.2729756999761,252.2725569999311,252.2725569999311,252.2725569999311,252.2725569999311,252.2725569999311,253.27231449994724,253.27231449994724,253.5567150999559,x,1,0.27859470003750175,None,JC,001,2023-10-15_14h53.28.531,tutorial4,2023.2.2,59.82775590252981,2023-10-15 14h53.41.261315 +0530,
150,v,26,1,105,1,,,,,253.57233949995134,,253.5583441000199,253.57233949995134,254.57209809997585,254.57209809997585,254.57209809997585,254.57209809997585,254.57209809997585,255.57185690000188,255.57185690000188,255.92266809998546,v,1,0.33982890006154776,None,JC,001,2023-10-15_14h53.28.531,tutorial4,2023.2.2,59.82775590252981,2023-10-15 14h53.41.261315 +0530,
50,c,26,2,106,2,,,,,255.93825250002556,,255.9240636000177,255.93825250002556,256.9382031999994,256.9382031999994,256.9382031999994,256.9382031999994,256.9382031999994,257.93776480003726,257.93776480003726,258.2886730999453,c,1,0.34511369990650564,None,JC,001,2023-10-15_14h53.28.531,tutorial4,2023.2.2,59.82775590252981,2023-10-15 14h53.41.261315 +0530,
-150,z,26,3,107,3,,,,,258.3043017999735,,258.29009210004006,258.3043017999735,259.3040647000307,259.3040647000307,259.3040647000307,259.3040647000307,259.3040647000307,260.3040001000045,260.3040001000045,261.2046817999799,z,1,0.8983234000625089,None,JC,001,2023-10-15_14h53.28.531,tutorial4,2023.2.2,59.82775590252981,2023-10-15 14h53.41.261315 +0530,
-50,x,27,0,108,0,,,,,261.2203080999898,,261.20607299997937,261.2203080999898,262.21999849996064,262.21999849996064,262.21999849996064,262.21999849996064,262.21999849996064,263.21996379992925,263.21996379992925,263.6041274999734,x,1,0.3783934999955818,None,JC,001,2023-10-15_14h53.28.531,tutorial4,2023.2.2,59.82775590252981,2023-10-15 14h53.41.261315 +0530,
150,v,27,1,109,1,,,,,263.6195056999568,,263.60559980000835,263.6195056999568,264.6193213999504,264.6193213999504,264.6193213999504,264.6193213999504,264.6193213999504,265.61921040003654,265.61921040003654,265.76997689995915,v,1,0.13547930005006492,None,JC,001,2023-10-15_14h53.28.531,tutorial4,2023.2.2,59.82775590252981,2023-10-15 14h53.41.261315 +0530,
50,c,27,2,110,2,,,,,265.78589089994784,,265.7712373000104,265.78589089994784,266.7852161999326,266.7852161999326,266.7852161999326,266.7852161999326,266.7852161999326,267.7853335000109,267.7853335000109,268.28615069994703,c,1,0.48354530008509755,None,JC,001,2023-10-15_14h53.28.531,tutorial4,2023.2.2,59.82775590252981,2023-10-15 14h53.41.261315 +0530,
-150,z,27,3,111,3,,,,,268.30146749992855,,268.28770089999307,268.30146749992855,269.301344800042,269.301344800042,269.301344800042,269.301344800042,269.301344800042,270.3011200999608,270.3011200999608,270.4353825999424,z,1,0.11863390007056296,None,JC,001,2023-10-15_14h53.28.531,tutorial4,2023.2.2,59.82775590252981,2023-10-15 14h53.41.261315 +0530,
-50,x,28,0,112,0,,,,,270.45084940001834,,270.43661039997824,270.45084940001834,271.4508826000383,271.4508826000383,271.4508826000383,271.4508826000383,271.4508826000383,272.4507506999653,272.4507506999653,273.23499070003163,x,1,0.7739659999497235,None,JC,001,2023-10-15_14h53.28.531,tutorial4,2023.2.2,59.82775590252981,2023-10-15 14h53.41.261315 +0530,
150,v,28,1,113,1,,,,,273.2504026000388,,273.2367041000398,273.2504026000388,274.25014939997345,274.25014939997345,274.25014939997345,274.25014939997345,274.25014939997345,275.249772900017,275.249772900017,275.58401370001957,v,1,0.32500259997323155,None,JC,001,2023-10-15_14h53.28.531,tutorial4,2023.2.2,59.82775590252981,2023-10-15 14h53.41.261315 +0530,
50,c,28,2,114,2,,,,,275.5994631999638,,275.5853916000342,275.5994631999638,276.59964649996255,276.59964649996255,276.59964649996255,276.59964649996255,276.59964649996255,277.599094199948,277.599094199948,277.9833993000211,c,1,0.38223039999138564,None,JC,001,2023-10-15_14h53.28.531,tutorial4,2023.2.2,59.82775590252981,2023-10-15 14h53.41.261315 +0530,
-150,z,28,3,115,3,,,,,277.9990528000053,,277.98467909998726,277.9990528000053,278.9991251999745,278.9991251999745,278.9991251999745,278.9991251999745,278.9991251999745,279.9984962999588,279.9984962999588,280.266341199982,z,1,0.2612213999964297,None,JC,001,2023-10-15_14h53.28.531,tutorial4,2023.2.2,59.82775590252981,2023-10-15 14h53.41.261315 +0530,
-50,x,29,0,116,0,,,,,280.28170419996604,,280.2679528000299,280.28170419996604,281.2813905000221,281.2813905000221,281.2813905000221,281.2813905000221,281.2813905000221,282.2813061999623,282.2813061999623,283.06586229999084,x,1,0.7778535999823362,None,JC,001,2023-10-15_14h53.28.531,tutorial4,2023.2.2,59.82775590252981,2023-10-15 14h53.41.261315 +0530,
150,v,29,1,117,1,,,,,283.0808449999895,,283.0674107000232,283.0808449999895,284.08063909993507,284.08063909993507,284.08063909993507,284.08063909993507,284.08063909993507,285.080405900022,285.080405900022,285.4316059999401,v,1,0.34819699998479337,None,JC,001,2023-10-15_14h53.28.531,tutorial4,2023.2.2,59.82775590252981,2023-10-15 14h53.41.261315 +0530,
50,c,29,2,118,2,,,,,285.4468655999517,,285.43331959994975,285.4468655999517,286.44671469996683,286.44671469996683,286.44671469996683,286.44671469996683,286.44671469996683,287.446453499957,287.446453499957,287.8309608999407,c,1,0.3808151000412181,None,JC,001,2023-10-15_14h53.28.531,tutorial4,2023.2.2,59.82775590252981,2023-10-15 14h53.41.261315 +0530,
-150,z,29,3,119,3,,,,,287.84601500001736,,287.8320885000285,287.84601500001736,288.8462167000398,288.8462167000398,288.8462167000398,288.8462167000398,288.8462167000398,289.8457630999619,289.8457630999619,290.1636795999948,z,1,0.3104320999700576,None,JC,001,2023-10-15_14h53.28.531,tutorial4,2023.2.2,59.82775590252981,2023-10-15 14h53.41.261315 +0530,
-50,x,30,0,120,0,,,,,290.1789927999489,,290.16519089997746,290.1789927999489,291.17858469998464,291.17858469998464,291.17858469998464,291.17858469998464,291.17858469998464,292.17837750003673,292.17837750003673,292.5630089000333,x,1,0.3713203000370413,None,JC,001,2023-10-15_14h53.28.531,tutorial4,2023.2.2,59.82775590252981,2023-10-15 14h53.41.261315 +0530,
150,v,30,1,121,1,,,,,292.57853029994294,,292.5643640999915,292.57853029994294,293.5779086999828,293.5779086999828,293.5779086999828,293.5779086999828,293.5779086999828,294.57775719999336,294.57775719999336,294.8953501000069,v,1,0.3041636999696493,None,JC,001,2023-10-15_14h53.28.531,tutorial4,2023.2.2,59.82775590252981,2023-10-15 14h53.41.261315 +0530,
50,c,30,2,122,2,,,,,294.910850699991,,294.8969463999383,294.910850699991,295.91086429997813,295.91086429997813,295.91086429997813,295.91086429997813,295.91086429997813,296.91048319998663,296.91048319998663,297.3449393999763,c,1,0.4212710000574589,None,JC,001,2023-10-15_14h53.28.531,tutorial4,2023.2.2,59.82775590252981,2023-10-15 14h53.41.261315 +0530,
-150,z,30,3,123,3,,,,,297.36040819995105,,297.346355299931,297.36040819995105,298.36000019998755,298.36000019998755,298.36000019998755,298.36000019998755,298.36000019998755,299.3599045999581,299.3599045999581,299.77805049996823,z,1,0.400754600064829,None,JC,001,2023-10-15_14h53.28.531,tutorial4,2023.2.2,59.82775590252981,2023-10-15 14h53.41.261315 +0530,
-50,x,31,0,124,0,,,,,299.7932973999996,,299.7800069999648,299.7932973999996,300.79281829996035,300.79281829996035,300.79281829996035,300.79281829996035,300.79281829996035,301.792472000001,301.792472000001,302.8601753000403,x,1,1.057297999970615,None,JC,001,2023-10-15_14h53.28.531,tutorial4,2023.2.2,59.82775590252981,2023-10-15 14h53.41.261315 +0530,
150,v,31,1,125,1,,,,,302.87571199995,,302.8618923999602,302.87571199995,303.87514549994376,303.87514549994376,303.87514549994376,303.87514549994376,303.87514549994376,304.87504670000635,304.87504670000635,305.1762735999655,v,1,0.29656489996705204,None,JC,001,2023-10-15_14h53.28.531,tutorial4,2023.2.2,59.82775590252981,2023-10-15 14h53.41.261315 +0530,
50,c,31,2,126,2,,,,,305.19150359998457,,305.1779934000224,305.19150359998457,306.19138410000596,306.19138410000596,306.19138410000596,306.19138410000596,306.19138410000596,307.1909642999526,307.1909642999526,307.8757443999639,c,1,0.6767566000344232,None,JC,001,2023-10-15_14h53.28.531,tutorial4,2023.2.2,59.82775590252981,2023-10-15 14h53.41.261315 +0530,
-150,z,31,3,127,3,,,,,307.89071700000204,,307.8773530999897,307.89071700000204,308.8913540999638,308.8913540999638,308.8913540999638,308.8913540999638,308.8913540999638,309.8903207000112,309.8903207000112,310.20761789998505,z,1,0.30107479996513575,None,JC,001,2023-10-15_14h53.28.531,tutorial4,2023.2.2,59.82775590252981,2023-10-15 14h53.41.261315 +0530,
-50,x,32,0,128,0,,,,,310.2234968999401,,310.20884320000187,310.2234968999401,311.22313920001034,311.22313920001034,311.22313920001034,311.22313920001034,311.22313920001034,312.22326829994563,312.22326829994563,312.6415341999382,x,1,0.4052009000442922,None,JC,001,2023-10-15_14h53.28.531,tutorial4,2023.2.2,59.82775590252981,2023-10-15 14h53.41.261315 +0530,
150,v,32,1,129,1,,,,,312.65637430001516,,312.6437584999949,312.65637430001516,313.65587729995605,313.65587729995605,313.65587729995605,313.65587729995605,313.65587729995605,314.6556990999961,314.6556990999961,314.92364319995977,v,1,0.2550411999691278,None,JC,001,2023-10-15_14h53.28.531,tutorial4,2023.2.2,59.82775590252981,2023-10-15 14h53.41.261315 +0530,
50,c,32,2,130,2,,,,,314.9391351999948,,314.92546439997386,314.9391351999948,315.93863600003533,315.93863600003533,315.93863600003533,315.93863600003533,315.93863600003533,316.93835519999266,316.93835519999266,317.28999770001974,c,1,0.3384016999043524,None,JC,001,2023-10-15_14h53.28.531,tutorial4,2023.2.2,59.82775590252981,2023-10-15 14h53.41.261315 +0530,
-150,z,32,3,131,3,,,,,317.30501180002466,,317.2919395000208,317.30501180002466,318.30518180003855,318.30518180003855,318.30518180003855,318.30518180003855,318.30518180003855,319.30431369994767,319.30431369994767,319.57230330002494,z,1,0.25350619992241263,None,JC,001,2023-10-15_14h53.28.531,tutorial4,2023.2.2,59.82775590252981,2023-10-15 14h53.41.261315 +0530,
-50,x,33,0,132,0,,,,,319.5878238999285,,319.57393559999764,319.5878238999285,320.5877626000438,320.5877626000438,320.5877626000438,320.5877626000438,320.5877626000438,321.5873013000237,321.5873013000237,322.37159120000433,x,1,0.7702326000435278,None,JC,001,2023-10-15_14h53.28.531,tutorial4,2023.2.2,59.82775590252981,2023-10-15 14h53.41.261315 +0530,
150,v,33,1,133,1,,,,,322.3869688999839,,322.37332689994946,322.3869688999839,323.38667199993506,323.38667199993506,323.38667199993506,323.38667199993506,323.38667199993506,324.38633130001836,324.38633130001836,324.68775879999157,v,1,0.28809849999379367,None,JC,001,2023-10-15_14h53.28.531,tutorial4,2023.2.2,59.82775590252981,2023-10-15 14h53.41.261315 +0530,
50,c,33,2,134,2,,,,,324.7030470999889,,324.68937719997484,324.7030470999889,325.70279190002475,325.70279190002475,325.70279190002475,325.70279190002475,325.70279190002475,326.7024512999924,326.7024512999924,327.12008379993495,c,1,0.40184979990590364,None,JC,001,2023-10-15_14h53.28.531,tutorial4,2023.2.2,59.82775590252981,2023-10-15 14h53.41.261315 +0530,
-150,z,33,3,135,3,,,,,327.1356837999774,,327.1213202000363,327.1356837999774,328.13517949997913,328.13517949997913,328.13517949997913,328.13517949997913,328.13517949997913,329.1349896999309,329.1349896999309,329.2027449000161,z,1,0.05597400001715869,None,JC,001,2023-10-15_14h53.28.531,tutorial4,2023.2.2,59.82775590252981,2023-10-15 14h53.41.261315 +0530,
-50,x,34,0,136,0,,,,,329.21817420003936,,329.2041168999858,329.21817420003936,330.2182489000261,330.2182489000261,330.2182489000261,330.2182489000261,330.2182489000261,331.2180089999456,331.2180089999456,331.5186109000351,x,1,0.28433259995654225,None,JC,001,2023-10-15_14h53.28.531,tutorial4,2023.2.2,59.82775590252981,2023-10-15 14h53.41.261315 +0530,
150,v,34,1,137,1,,,,,331.5343134000432,,331.52001620002557,331.5343134000432,332.5341797999572,332.5341797999572,332.5341797999572,332.5341797999572,332.5341797999572,333.53391030000057,333.53391030000057,333.8847215999849,v,1,0.3488063000841066,None,JC,001,2023-10-15_14h53.28.531,tutorial4,2023.2.2,59.82775590252981,2023-10-15 14h53.41.261315 +0530,
50,c,34,2,138,2,,,,,333.900680599967,,333.8859838999342,333.900680599967,334.90020939998794,334.90020939998794,334.90020939998794,334.90020939998794,334.90020939998794,335.8998462000163,335.8998462000163,336.16786980000325,c,1,0.2597078999970108,None,JC,001,2023-10-15_14h53.28.531,tutorial4,2023.2.2,59.82775590252981,2023-10-15 14h53.41.261315 +0530,
-150,z,34,3,139,3,,,,,336.1830567000434,,336.1694921000162,336.1830567000434,337.1830643999856,337.1830643999856,337.1830643999856,337.1830643999856,337.1830643999856,338.1827253999654,338.1827253999654,338.9003506000154,z,1,0.7014275999972597,None,JC,001,2023-10-15_14h53.28.531,tutorial4,2023.2.2,59.82775590252981,2023-10-15 14h53.41.261315 +0530,
-50,x,35,0,140,0,,,,,338.9160020999843,,338.9019696000032,338.9160020999843,339.9154428000329,339.9154428000329,339.9154428000329,339.9154428000329,339.9154428000329,340.9152991999872,340.9152991999872,341.2835470000282,x,1,0.35514959995634854,None,JC,001,2023-10-15_14h53.28.531,tutorial4,2023.2.2,59.82775590252981,2023-10-15 14h53.41.261315 +0530,
150,v,35,1,141,1,,,,,341.2983751000138,,341.28569089993834,341.2983751000138,342.2977563999593,342.2977563999593,342.2977563999593,342.2977563999593,342.2977563999593,343.29786990000866,343.29786990000866,343.91585250000935,v,1,0.6043196999235079,None,JC,001,2023-10-15_14h53.28.531,tutorial4,2023.2.2,59.82775590252981,2023-10-15 14h53.41.261315 +0530,
50,c,35,2,142,2,,,,,343.93106820003595,,343.917386099929,343.93106820003595,344.9309503999539,344.9309503999539,344.9309503999539,344.9309503999539,344.9309503999539,345.9303467000136,345.9303467000136,346.2318692000117,c,1,0.2985847000963986,None,JC,001,2023-10-15_14h53.28.531,tutorial4,2023.2.2,59.82775590252981,2023-10-15 14h53.41.261315 +0530,
-150,z,35,3,143,3,,,,,346.2471229999792,,346.23366909998003,346.2471229999792,347.24679170001764,347.24679170001764,347.24679170001764,347.24679170001764,347.24679170001764,348.24648530001286,348.24648530001286,348.5809263000265,z,1,0.32841269997879863,None,JC,001,2023-10-15_14h53.28.531,tutorial4,2023.2.2,59.82775590252981,2023-10-15 14h53.41.261315 +0530,
-50,x,36,0,144,0,,,,,348.59635320003144,,348.58239340002183,348.59635320003144,349.5960957999341,349.5960957999341,349.5960957999341,349.5960957999341,349.5960957999341,350.59598680003546,350.59598680003546,351.2970926000271,x,1,0.6852132000494748,None,JC,001,2023-10-15_14h53.28.531,tutorial4,2023.2.2,59.82775590252981,2023-10-15 14h53.41.261315 +0530,
150,v,36,1,145,1,,,,,351.3122011999367,,351.2985899000196,351.3122011999367,352.3122639999492,352.3122639999492,352.3122639999492,352.3122639999492,352.3122639999492,353.3117892999435,353.3117892999435,353.629473399953,v,1,0.3055873999837786,None,JC,001,2023-10-15_14h53.28.531,tutorial4,2023.2.2,59.82775590252981,2023-10-15 14h53.41.261315 +0530,
50,c,36,2,146,2,,,,,353.64499549998436,,353.63085359998513,353.64499549998436,354.64485559996683,354.64485559996683,354.64485559996683,354.64485559996683,354.64485559996683,355.6447001999477,355.6447001999477,355.9453975999495,c,1,0.2988304999889806,None,JC,001,2023-10-15_14h53.28.531,tutorial4,2023.2.2,59.82775590252981,2023-10-15 14h53.41.261315 +0530,
-150,z,36,3,147,3,,,,,355.96100699994713,,355.94672090001404,355.96100699994713,356.9609291999368,356.9609291999368,356.9609291999368,356.9609291999368,356.9609291999368,357.96077899995726,357.96077899995726,358.1952408000361,z,1,0.23260809993371367,None,JC,001,2023-10-15_14h53.28.531,tutorial4,2023.2.2,59.82775590252981,2023-10-15 14h53.41.261315 +0530,
-50,x,37,0,148,0,,,,,358.2103796999436,,358.19676049996633,358.2103796999436,359.2105503999628,359.2105503999628,359.2105503999628,359.2105503999628,359.2105503999628,360.20992759999353,360.20992759999353,360.62786829995457,x,1,0.41062069998588413,None,JC,001,2023-10-15_14h53.28.531,tutorial4,2023.2.2,59.82775590252981,2023-10-15 14h53.41.261315 +0530,
150,v,37,1,149,1,,,,,360.6431914999848,,360.629526100005,360.6431914999848,361.64353350002784,361.64353350002784,361.64353350002784,361.64353350002784,361.64353350002784,362.64263290003873,362.64263290003873,363.1275573000312,v,1,0.47276419994886965,None,JC,001,2023-10-15_14h53.28.531,tutorial4,2023.2.2,59.82775590252981,2023-10-15 14h53.41.261315 +0530,
50,c,37,2,150,2,,,,,363.1426949999295,,363.12971589993685,363.1426949999295,364.1424696999602,364.1424696999602,364.1424696999602,364.1424696999602,364.1424696999602,365.14183680003043,365.14183680003043,365.64219349995255,c,1,0.4876329000107944,None,JC,001,2023-10-15_14h53.28.531,tutorial4,2023.2.2,59.82775590252981,2023-10-15 14h53.41.261315 +0530,
-150,z,37,3,151,3,,,,,365.65842989995144,,365.6430228999816,365.65842989995144,366.65827100002207,366.65827100002207,366.65827100002207,366.65827100002207,366.65827100002207,367.6581348000327,367.6581348000327,368.0089007000206,z,1,0.33578329998999834,None,JC,001,2023-10-15_14h53.28.531,tutorial4,2023.2.2,59.82775590252981,2023-10-15 14h53.41.261315 +0530,
-50,x,38,0,152,0,,,,,368.02432580001187,,368.01008109992836,368.02432580001187,369.02440959995147,369.02440959995147,369.02440959995147,369.02440959995147,369.02440959995147,370.0241880000103,370.0241880000103,370.3752071999479,x,1,0.3374656999949366,None,JC,001,2023-10-15_14h53.28.531,tutorial4,2023.2.2,59.82775590252981,2023-10-15 14h53.41.261315 +0530,
150,v,38,1,153,1,,,,,370.3903269999428,,370.3766285999445,370.3903269999428,371.39032499992754,371.39032499992754,371.39032499992754,371.39032499992754,371.39032499992754,372.39011749997735,372.39011749997735,372.70794520003255,v,1,0.31420640007127076,None,JC,001,2023-10-15_14h53.28.531,tutorial4,2023.2.2,59.82775590252981,2023-10-15 14h53.41.261315 +0530,
50,c,38,2,154,2,,,,,372.72329899994656,,372.7096579000354,372.72329899994656,373.72267129994,373.72267129994,373.72267129994,373.72267129994,373.72267129994,374.72281419998035,374.72281419998035,375.0571755999699,c,1,0.3196817999705672,None,JC,001,2023-10-15_14h53.28.531,tutorial4,2023.2.2,59.82775590252981,2023-10-15 14h53.41.261315 +0530,
-150,z,38,3,155,3,,,,,375.072762100026,,375.05880889995024,375.072762100026,376.07230350002646,376.07230350002646,376.07230350002646,376.07230350002646,376.07230350002646,377.072249299963,377.072249299963,377.3562592000235,z,1,0.2699313999619335,None,JC,001,2023-10-15_14h53.28.531,tutorial4,2023.2.2,59.82775590252981,2023-10-15 14h53.41.261315 +0530,
-50,x,39,0,156,0,,,,,377.3719876999967,,377.3573932000436,377.3719876999967,378.37178909999784,378.37178909999784,378.37178909999784,378.37178909999784,378.37178909999784,379.37140229996294,379.37140229996294,379.78941450000275,x,1,0.4021761999465525,None,JC,001,2023-10-15_14h53.28.531,tutorial4,2023.2.2,59.82775590252981,2023-10-15 14h53.41.261315 +0530,
150,v,39,1,157,1,,,,,379.80479840002954,,379.7913452000357,379.80479840002954,380.80428239994217,380.80428239994217,380.80428239994217,380.80428239994217,380.80428239994217,381.80427960003726,381.80427960003726,382.08843280002475,v,1,0.2695477999513969,None,JC,001,2023-10-15_14h53.28.531,tutorial4,2023.2.2,59.82775590252981,2023-10-15 14h53.41.261315 +0530,
50,c,39,2,158,2,,,,,382.1039411999518,,382.08998019993305,382.1039411999518,383.1038424000144,383.1038424000144,383.1038424000144,383.1038424000144,383.1038424000144,384.10359259997495,384.10359259997495,384.554653899977,c,1,0.4355814999435097,None,JC,001,2023-10-15_14h53.28.531,tutorial4,2023.2.2,59.82775590252981,2023-10-15 14h53.41.261315 +0530,
-150,z,39,3,159,3,,,,,384.56995299994014,,384.55628679995425,384.56995299994014,385.5697171000065,385.5697171000065,385.5697171000065,385.5697171000065,385.5697171000065,386.5694871000014,386.5694871000014,386.9205606000032,z,1,0.3490509999683127,None,JC,001,2023-10-15_14h53.28.531,tutorial4,2023.2.2,59.82775590252981,2023-10-15 14h53.41.261315 +0530,
-50,x,40,0,160,0,,,,,386.93587059993297,,386.9219518000027,386.93587059993297,387.935729800025,387.935729800025,387.935729800025,387.935729800025,387.935729800025,388.935529600014,388.935529600014,389.35395479993895,x,1,0.416464600013569,None,JC,001,2023-10-15_14h53.28.531,tutorial4,2023.2.2,59.82775590252981,2023-10-15 14h53.41.261315 +0530,
150,v,40,1,161,1,,,,,389.3686675999779,,389.3556689999532,389.3686675999779,390.3684518999653,390.3684518999653,390.3684518999653,390.3684518999653,390.3684518999653,391.3680768000195,391.3680768000195,391.68722590000834,v,1,0.308340199990198,None,JC,001,2023-10-15_14h53.28.531,tutorial4,2023.2.2,59.82775590252981,2023-10-15 14h53.41.261315 +0530,
50,c,40,2,162,2,,,,,391.7015175999841,,391.68985069997143,391.7015175999841,392.70103669993114,392.70103669993114,392.70103669993114,392.70103669993114,392.70103669993114,393.70077150000725,393.70077150000725,394.3354279999621,c,1,0.6181918999645859,None,JC,001,2023-10-15_14h53.28.531,tutorial4,2023.2.2,59.82775590252981,2023-10-15 14h53.41.261315 +0530,
-150,z,40,3,163,3,,,,,394.35058880003635,,394.3369576999685,394.35058880003635,395.35054869996384,395.35054869996384,395.35054869996384,395.35054869996384,395.35054869996384,396.3502492000116,396.3502492000116,396.5844236999983,z,1,0.22954219998791814,None,JC,001,2023-10-15_14h53.28.531,tutorial4,2023.2.2,59.82775590252981,2023-10-15 14h53.41.261315 +0530,
-50,x,41,0,164,0,,,,,396.60006820003036,,396.58577360003255,396.60006820003036,397.599971299991,397.599971299991,397.599971299991,397.599971299991,397.599971299991,398.5997797999298,398.5997797999298,399.0672862000065,x,1,0.45730389992240816,None,JC,001,2023-10-15_14h53.28.531,tutorial4,2023.2.2,59.82775590252981,2023-10-15 14h53.41.261315 +0530,
150,v,41,1,165,1,,,,,399.082631999976,,399.06889739993494,399.082631999976,400.08256999996956,400.08256999996956,400.08256999996956,400.08256999996956,400.08256999996956,401.0821572999703,401.0821572999703,401.41661289997865,v,1,0.3309649999719113,None,JC,001,2023-10-15_14h53.28.531,tutorial4,2023.2.2,59.82775590252981,2023-10-15 14h53.41.261315 +0530,
50,c,41,2,166,2,,,,,401.4319814000046,,401.4182356999954,401.4319814000046,402.43169769993983,402.43169769993983,402.43169769993983,402.43169769993983,402.43169769993983,403.4314006000059,403.4314006000059,403.8163561000256,c,1,0.37677670002449304,None,JC,001,2023-10-15_14h53.28.531,tutorial4,2023.2.2,59.82775590252981,2023-10-15 14h53.41.261315 +0530,
-150,z,41,3,167,3,,,,,403.8314576999983,,403.81829770002514,403.8314576999983,404.8311708000256,404.8311708000256,404.8311708000256,404.8311708000256,404.8311708000256,405.8309257000219,405.8309257000219,406.1323320999509,z,1,0.29674340004567057,None,JC,001,2023-10-15_14h53.28.531,tutorial4,2023.2.2,59.82775590252981,2023-10-15 14h53.41.261315 +0530,
-50,x,42,0,168,0,,,,,406.14748209994286,,406.1343934999313,406.14748209994286,407.1471550000133,407.1471550000133,407.1471550000133,407.1471550000133,407.1471550000133,408.1493130000308,408.1493130000308,408.7146830999991,x,1,0.5496624999213964,None,JC,001,2023-10-15_14h53.28.531,tutorial4,2023.2.2,59.82775590252981,2023-10-15 14h53.41.261315 +0530,
150,v,42,1,169,1,,,,,408.7299311000388,,408.71604670002125,408.7299311000388,409.73009790002834,409.73009790002834,409.73009790002834,409.73009790002834,409.73009790002834,410.72977840004023,410.72977840004023,411.0307676999364,v,1,0.2928412000183016,None,JC,001,2023-10-15_14h53.28.531,tutorial4,2023.2.2,59.82775590252981,2023-10-15 14h53.41.261315 +0530,
50,c,42,2,170,2,,,,,411.04606429999694,,411.03206250001676,411.04606429999694,412.0458905999549,412.0458905999549,412.0458905999549,412.0458905999549,412.0458905999549,413.0454796999693,413.0454796999693,413.4799593000207,c,1,0.4228510999819264,None,JC,001,2023-10-15_14h53.28.531,tutorial4,2023.2.2,59.82775590252981,2023-10-15 14h53.41.261315 +0530,
-150,z,42,3,171,3,,,,,413.4953230000101,,413.48141450004186,413.4953230000101,414.4951195999747,414.4951195999747,414.4951195999747,414.4951195999747,414.4951195999747,415.49498159997165,415.49498159997165,415.9297474999912,z,1,0.4320028000511229,None,JC,001,2023-10-15_14h53.28.531,tutorial4,2023.2.2,59.82775590252981,2023-10-15 14h53.41.261315 +0530,
-50,x,43,0,172,0,,,,,415.94479360000696,,415.93133389996365,415.94479360000696,416.94461739994586,416.94461739994586,416.94461739994586,416.94461739994586,416.94461739994586,417.94421620003413,417.94421620003413,418.2950727000134,x,1,0.3389673000201583,None,JC,001,2023-10-15_14h53.28.531,tutorial4,2023.2.2,59.82775590252981,2023-10-15 14h53.41.261315 +0530,
150,v,43,1,173,1,,,,,418.31058579997625,,418.2965691999998,418.31058579997625,419.3104792999802,419.3104792999802,419.3104792999802,419.3104792999802,419.3104792999802,420.31009269994684,420.31009269994684,420.7114494999405,v,1,0.38988359994255006,None,JC,001,2023-10-15_14h53.28.531,tutorial4,2023.2.2,59.82775590252981,2023-10-15 14h53.41.261315 +0530,
50,c,43,2,174,2,,,,,420.7267213999294,,420.7131503999699,420.7267213999294,421.7266437000362,421.7266437000362,421.7266437000362,421.7266437000362,421.7266437000362,422.72655150003266,422.72655150003266,423.34404819994234,c,1,0.6017449999926612,None,JC,001,2023-10-15_14h53.28.531,tutorial4,2023.2.2,59.82775590252981,2023-10-15 14h53.41.261315 +0530,
-150,z,43,3,175,3,,,,,423.3593928000191,,423.34572989994194,423.3593928000191,424.3590525999898,424.3590525999898,424.3590525999898,424.3590525999898,424.3590525999898,425.35882039996795,425.35882039996795,425.6933944999473,z,1,0.3304720999440178,None,JC,001,2023-10-15_14h53.28.531,tutorial4,2023.2.2,59.82775590252981,2023-10-15 14h53.41.261315 +0530,
-50,x,44,0,176,0,,,,,425.70881320000626,,425.6950035999762,425.70881320000626,426.70812710002065,426.70812710002065,426.70812710002065,426.70812710002065,426.70812710002065,427.7092039999552,427.7092039999552,428.2425112000201,x,1,0.5234636999666691,None,JC,001,2023-10-15_14h53.28.531,tutorial4,2023.2.2,59.82775590252981,2023-10-15 14h53.41.261315 +0530,
150,v,44,1,177,1,,,,,428.25803329993505,,428.24398110003676,428.25803329993505,429.2581815000158,429.2581815000158,429.2581815000158,429.2581815000158,429.2581815000158,430.2574869999662,430.2574869999662,430.54202579997946,v,1,0.2823135000653565,None,JC,001,2023-10-15_14h53.28.531,tutorial4,2023.2.2,59.82775590252981,2023-10-15 14h53.41.261315 +0530,
50,c,44,2,178,2,,,,,430.5573233999312,,430.54339779994916,430.5573233999312,431.5574333999539,431.5574333999539,431.5574333999539,431.5574333999539,431.5574333999539,432.5570371999638,432.5570371999638,432.97483039996587,c,1,0.4045816999860108,None,JC,001,2023-10-15_14h53.28.531,tutorial4,2023.2.2,59.82775590252981,2023-10-15 14h53.41.261315 +0530,
-150,z,44,3,179,3,,,,,432.99012269999366,,432.97635260003153,432.99012269999366,433.9896844000323,433.9896844000323,433.9896844000323,433.9896844000323,433.9896844000323,434.98972740001045,434.98972740001045,435.3570873000426,z,1,0.36470640008337796,None,JC,001,2023-10-15_14h53.28.531,tutorial4,2023.2.2,59.82775590252981,2023-10-15 14h53.41.261315 +0530,
-50,x,45,0,180,0,,,,,435.37292230001185,,435.3582928000251,435.37292230001185,436.3727172999643,436.3727172999643,436.3727172999643,436.3727172999643,436.3727172999643,437.37229259999003,437.37229259999003,438.3237425000407,x,1,0.9414363000541925,None,JC,001,2023-10-15_14h53.28.531,tutorial4,2023.2.2,59.82775590252981,2023-10-15 14h53.41.261315 +0530,
150,v,45,1,181,1,,,,,438.33863919996656,,438.3255679999711,438.33863919996656,439.338532499969,439.338532499969,439.338532499969,439.338532499969,439.338532499969,440.33824239997193,440.33824239997193,440.6394774999935,v,1,0.2924358999589458,None,JC,001,2023-10-15_14h53.28.531,tutorial4,2023.2.2,59.82775590252981,2023-10-15 14h53.41.261315 +0530,
50,c,45,2,182,2,,,,,440.65447349997703,,440.64070999994874,440.65447349997703,441.6543872000184,441.6543872000184,441.6543872000184,441.6543872000184,441.6543872000184,442.6541293000337,442.6541293000337,442.9559057999868,c,1,0.2939442000351846,None,JC,001,2023-10-15_14h53.28.531,tutorial4,2023.2.2,59.82775590252981,2023-10-15 14h53.41.261315 +0530,
-150,z,45,3,183,3,,,,,442.970857599983,,442.9577161000343,442.970857599983,443.97088099992834,443.97088099992834,443.97088099992834,443.97088099992834,443.97088099992834,444.97020829992834,444.97020829992834,445.254384299973,z,1,0.2818374000489712,None,JC,001,2023-10-15_14h53.28.531,tutorial4,2023.2.2,59.82775590252981,2023-10-15 14h53.41.261315 +0530,
-50,x,46,0,184,0,,,,,445.2703127999557,,445.2555197000038,445.2703127999557,446.2698696999578,446.2698696999578,446.2698696999578,446.2698696999578,446.2698696999578,447.2692706999369,447.2692706999369,447.6871737999609,x,1,0.41633700008969754,None,JC,001,2023-10-15_14h53.28.531,tutorial4,2023.2.2,59.82775590252981,2023-10-15 14h53.41.261315 +0530,
150,v,46,1,185,1,,,,,447.70252359996084,,447.688335099956,447.70252359996084,448.7025197999319,448.7025197999319,448.7025197999319,448.7025197999319,448.7025197999319,449.7022282000398,449.7022282000398,449.9203849999467,v,1,0.20800600002985448,None,JC,001,2023-10-15_14h53.28.531,tutorial4,2023.2.2,59.82775590252981,2023-10-15 14h53.41.261315 +0530,
50,c,46,2,186,2,,,,,449.9356101999292,,449.9224832999753,449.9356101999292,450.9352397000184,450.9352397000184,450.9352397000184,450.9352397000184,450.9352397000184,451.93507519993,451.93507519993,452.51920099998824,c,1,0.5693898000754416,None,JC,001,2023-10-15_14h53.28.531,tutorial4,2023.2.2,59.82775590252981,2023-10-15 14h53.41.261315 +0530,
-150,z,46,3,187,3,,,,,452.5346710999729,,452.5203225000296,452.5346710999729,453.53447900002357,453.53447900002357,453.53447900002357,453.53447900002357,453.53447900002357,454.5344484000234,454.5344484000234,454.8026192999678,z,1,0.2587391999550164,None,JC,001,2023-10-15_14h53.28.531,tutorial4,2023.2.2,59.82775590252981,2023-10-15 14h53.41.261315 +0530,
-50,x,47,0,188,0,,,,,454.8175367999356,,454.804739199928,454.8175367999356,455.8175844999496,455.8175844999496,455.8175844999496,455.8175844999496,455.8175844999496,456.8170153000392,456.8170153000392,457.3014353000326,x,1,0.4679489000700414,None,JC,001,2023-10-15_14h53.28.531,tutorial4,2023.2.2,59.82775590252981,2023-10-15 14h53.41.261315 +0530,
150,v,47,1,189,1,,,,,457.3169229000341,,457.30262610001955,457.3169229000341,458.31659389997367,458.31659389997367,458.31659389997367,458.31659389997367,458.31659389997367,459.31633219996,459.31633219996,459.334285799996,v,1,0.009657100075855851,None,JC,001,2023-10-15_14h53.28.531,tutorial4,2023.2.2,59.82775590252981,2023-10-15 14h53.41.261315 +0530,
50,c,47,2,190,2,,,,,459.34957279998343,,459.33601109997835,459.34957279998343,460.3493726999732,460.3493726999732,460.3493726999732,460.3493726999732,460.3493726999732,461.34917950001545,461.34917950001545,461.56687929993495,c,1,0.20238819997757673,None,JC,001,2023-10-15_14h53.28.531,tutorial4,2023.2.2,59.82775590252981,2023-10-15 14h53.41.261315 +0530,
-150,z,47,3,191,3,,,,,461.58232479996514,,461.56848080002237,461.58232479996514,462.58225129998755,462.58225129998755,462.58225129998755,462.58225129998755,462.58225129998755,463.5816933999304,463.5816933999304,463.9996917999815,z,1,0.4030858000041917,None,JC,001,2023-10-15_14h53.28.531,tutorial4,2023.2.2,59.82775590252981,2023-10-15 14h53.41.261315 +0530,
-50,x,48,0,192,0,,,,,464.0152492999332,,464.001666199998,464.0152492999332,465.01487980003003,465.01487980003003,465.01487980003003,465.01487980003003,465.01487980003003,466.0146754999878,466.0146754999878,466.3990017999895,x,1,0.36843979998957366,None,JC,001,2023-10-15_14h53.28.531,tutorial4,2023.2.2,59.82775590252981,2023-10-15 14h53.41.261315 +0530,
150,v,48,1,193,1,,,,,466.4142686999403,,466.40078140003607,466.4142686999403,467.4141762999352,467.4141762999352,467.4141762999352,467.4141762999352,467.4141762999352,468.4138351000147,468.4138351000147,468.64853310002945,v,1,0.2321029999293387,None,JC,001,2023-10-15_14h53.28.531,tutorial4,2023.2.2,59.82775590252981,2023-10-15 14h53.41.261315 +0530,
50,c,48,2,194,2,,,,,468.66398189996835,,468.65005569998175,468.66398189996835,469.6636138999602,469.6636138999602,469.6636138999602,469.6636138999602,469.6636138999602,470.6632202999899,470.6632202999899,470.94730659993365,c,1,0.2790487000020221,None,JC,001,2023-10-15_14h53.28.531,tutorial4,2023.2.2,59.82775590252981,2023-10-15 14h53.41.261315 +0530,
-150,z,48,3,195,3,,,,,470.9630413999548,,470.9485086000059,470.9630413999548,471.9629452000372,471.9629452000372,471.9629452000372,471.9629452000372,471.9629452000372,472.9626078000292,472.9626078000292,473.29720889998134,z,1,0.32759170001372695,None,JC,001,2023-10-15_14h53.28.531,tutorial4,2023.2.2,59.82775590252981,2023-10-15 14h53.41.261315 +0530,
-50,x,49,0,196,0,,,,,473.312712599989,,473.2986852999311,473.312712599989,474.3120891000144,474.3120891000144,474.3120891000144,474.3120891000144,474.3120891000144,475.31194439996034,475.31194439996034,475.51347589993384,x,1,0.19608590006828308,None,JC,001,2023-10-15_14h53.28.531,tutorial4,2023.2.2,59.82775590252981,2023-10-15 14h53.41.261315 +0530,
150,v,49,1,197,1,,,,,475.5285190999275,,475.5152697999729,475.5285190999275,476.52827529993374,476.52827529993374,476.52827529993374,476.52827529993374,476.52827529993374,477.5281407999573,477.5281407999573,477.8292377999751,v,1,0.28350769996177405,None,JC,001,2023-10-15_14h53.28.531,tutorial4,2023.2.2,59.82775590252981,2023-10-15 14h53.41.261315 +0530,
50,c,49,2,198,2,,,,,477.8445359999314,,477.83087169995997,477.8445359999314,478.84415419993456,478.84415419993456,478.84415419993456,478.84415419993456,478.84415419993456,479.84371029993054,479.84371029993054,480.31154929997865,c,1,0.45788260002154857,None,JC,001,2023-10-15_14h53.28.531,tutorial4,2023.2.2,59.82775590252981,2023-10-15 14h53.41.261315 +0530,
-150,z,49,3,199,3,,,,,480.32681470003445,,480.31364840001334,480.32681470003445,481.3266916000284,481.3266916000284,481.3266916000284,481.3266916000284,481.3266916000284,482.32668790000025,482.32668790000025,482.6612148999702,z,1,0.32768450002186,None,JC,001,2023-10-15_14h53.28.531,tutorial4,2023.2.2,59.82775590252981,2023-10-15 14h53.41.261315 +0530,
150,v,,,,,0,0,0,1,482.67851290002,,482.67395369999576,482.67851290002,483.6773413999472,483.6773413999472,483.6773413999472,483.6773413999472,483.6931760000298,484.6760412999429,484.6760412999429,485.4939713999629,v,1,0.8109903000295162,None,JC,001,2023-10-15_14h53.28.531,tutorial4,2023.2.2,59.82775590252981,2023-10-15 14h53.41.261315 +0530,
-50,x,,,,,0,1,1,0,485.5089859999716,,485.4961983000394,485.5089859999716,486.50921599997673,486.50921599997673,486.50921599997673,486.50921599997673,486.50921599997673,487.50861409993377,487.50861409993377,488.3425809999462,x,1,0.8226118000457063,None,JC,001,2023-10-15_14h53.28.531,tutorial4,2023.2.2,59.82775590252981,2023-10-15 14h53.41.261315 +0530,
150,v,,,,,0,2,2,1,488.35827560001053,,488.3437941999873,488.35827560001053,489.3582593000028,489.3582593000028,489.3582593000028,489.3582593000028,489.3582593000028,490.3578425999731,490.3578425999731,490.975450500031,v,1,0.6134061000775546,None,JC,001,2023-10-15_14h53.28.531,tutorial4,2023.2.2,59.82775590252981,2023-10-15 14h53.41.261315 +0530,
50,c,,,,,0,3,3,2,490.9908818999538,,490.97692169994116,490.9908818999538,491.9908255999908,491.9908255999908,491.9908255999908,491.9908255999908,491.9908255999908,492.99047119996976,492.99047119996976,493.5246668999316,c,1,0.5276429000077769,None,JC,001,2023-10-15_14h53.28.531,tutorial4,2023.2.2,59.82775590252981,2023-10-15 14h53.41.261315 +0530,
-150,z,,,,,1,0,4,3,493.5402691999916,,493.5259895999916,493.5402691999916,494.54018649994396,494.54018649994396,494.54018649994396,494.54018649994396,494.54018649994396,495.5397909999592,495.5397909999592,496.1741007999517,z,1,0.6227424000389874,None,JC,001,2023-10-15_14h53.28.531,tutorial4,2023.2.2,59.82775590252981,2023-10-15 14h53.41.261315 +0530,
-150,z,,,,,1,1,5,3,496.1897876999574,,496.1755542999599,496.1897876999574,497.18934819998685,497.18934819998685,497.18934819998685,497.18934819998685,497.18934819998685,498.1893853000365,498.1893853000365,498.7232421999797,z,1,0.528827500063926,None,JC,001,2023-10-15_14h53.28.531,tutorial4,2023.2.2,59.82775590252981,2023-10-15 14h53.41.261315 +0530,
-50,x,,,,,1,2,6,0,498.739084300003,,498.72436989995185,498.739084300003,499.7382866999833,499.7382866999833,499.7382866999833,499.7382866999833,499.7382866999833,500.738462899928,500.738462899928,501.2391370999394,x,1,0.4957231000298634,None,JC,001,2023-10-15_14h53.28.531,tutorial4,2023.2.2,59.82775590252981,2023-10-15 14h53.41.261315 +0530,
150,v,,,,,1,3,7,1,501.255050900043,,501.2400863999501,501.255050900043,502.25446600001305,502.25446600001305,502.25446600001305,502.25446600001305,502.25446600001305,503.2543224999681,503.2543224999681,503.95531999995,v,1,0.6870898000197485,None,JC,001,2023-10-15_14h53.28.531,tutorial4,2023.2.2,59.82775590252981,2023-10-15 14h53.41.261315 +0530,
50,c,,,,,2,0,8,2,503.97091329994146,,503.9566460000351,503.97091329994146,504.9705023999559,504.9705023999559,504.9705023999559,504.9705023999559,504.9705023999559,505.9701794999419,505.9701794999419,506.53771850001067,c,1,0.5616922000190243,None,JC,001,2023-10-15_14h53.28.531,tutorial4,2023.2.2,59.82775590252981,2023-10-15 14h53.41.261315 +0530,
-50,x,,,,,2,1,9,0,506.55369309999514,,506.53904299996793,506.55369309999514,507.5532976000104,507.5532976000104,507.5532976000104,507.5532976000104,507.5532976000104,508.5528239000123,508.5528239000123,509.13712560001295,x,1,0.5765182999894023,None,JC,001,2023-10-15_14h53.28.531,tutorial4,2023.2.2,59.82775590252981,2023-10-15 14h53.41.261315 +0530,
-50,x,,,,,2,2,10,0,509.15298859996255,,509.1385701999534,509.15298859996255,510.15245509997476,510.15245509997476,510.15245509997476,510.15245509997476,510.15245509997476,511.1520657000365,511.1520657000365,512.0205373000354,x,1,0.8570072000147775,None,JC,001,2023-10-15_14h53.28.531,tutorial4,2023.2.2,59.82775590252981,2023-10-15 14h53.41.261315 +0530,
50,c,,,,,2,3,11,2,512.0355018000118,,512.0231324000051,512.0355018000118,513.0350833999692,513.0350833999692,513.0350833999692,513.0350833999692,513.0350833999692,514.03493850003,514.03493850003,514.9361874000169,v,0,0.8882888000225648,None,JC,001,2023-10-15_14h53.28.531,tutorial4,2023.2.2,59.82775590252981,2023-10-15 14h53.41.261315 +0530,
50,c,,,,,3,0,12,2,514.9512217999436,,514.9382508000126,514.9512217999436,515.951056699967,515.951056699967,515.951056699967,515.951056699967,515.951056699967,516.9506155999843,516.9506155999843,517.7015658000018,c,1,0.738088299985975,None,JC,001,2023-10-15_14h53.28.531,tutorial4,2023.2.2,59.82775590252981,2023-10-15 14h53.41.261315 +0530,
150,v,,,,,3,1,13,1,517.7171590999933,,517.7027839999646,517.7171590999933,518.7168057999806,518.7168057999806,518.7168057999806,518.7168057999806,518.7168057999806,519.7166245999979,519.7166245999979,520.3843611000339,v,1,0.661446199985221,None,JC,001,2023-10-15_14h53.28.531,tutorial4,2023.2.2,59.82775590252981,2023-10-15 14h53.41.261315 +0530,
150,v,,,,,3,2,14,1,520.3997588999337,,520.3855610999744,520.3997588999337,521.3995853000088,521.3995853000088,521.3995853000088,521.3995853000088,521.3995853000088,522.3991309000412,522.3991309000412,523.466633199947,v,1,1.0600688999984413,None,JC,001,2023-10-15_14h53.28.531,tutorial4,2023.2.2,59.82775590252981,2023-10-15 14h53.41.261315 +0530,
150,v,,,,,3,3,15,1,523.4820005999645,,523.467933399952,523.4820005999645,524.4819170000264,524.4819170000264,524.4819170000264,524.4819170000264,524.4819170000264,525.4816570000257,525.4816570000257,525.9992240000283,v,1,0.5014537000097334,None,JC,001,2023-10-15_14h53.28.531,tutorial4,2023.2.2,59.82775590252981,2023-10-15 14h53.41.261315 +0530,
150,v,,,,,4,0,16,1,526.0147654999746,,526.0006959999446,526.0147654999746,527.014458599966,527.014458599966,527.014458599966,527.014458599966,527.014458599966,528.0144373000367,528.0144373000367,528.5820688999956,v,1,0.5622158999321982,None,JC,001,2023-10-15_14h53.28.531,tutorial4,2023.2.2,59.82775590252981,2023-10-15 14h53.41.261315 +0530,
-50,x,,,,,4,1,17,0,528.5974246000405,,528.5836010000203,528.5974246000405,529.5971799000399,529.5971799000399,529.5971799000399,529.5971799000399,529.5971799000399,530.597026100033,530.597026100033,531.21479550004,x,1,0.6084899000125006,None,JC,001,2023-10-15_14h53.28.531,tutorial4,2023.2.2,59.82775590252981,2023-10-15 14h53.41.261315 +0530,
150,v,,,,,4,2,18,1,531.230073499959,,531.2162990999641,531.230073499959,532.230360699934,532.230360699934,532.230360699934,532.230360699934,532.230360699934,533.2295011000242,533.2295011000242,533.9636023000348,v,1,0.7250343000050634,None,JC,001,2023-10-15_14h53.28.531,tutorial4,2023.2.2,59.82775590252981,2023-10-15 14h53.41.261315 +0530,
150,v,,,,,4,3,19,1,533.9791526999325,,533.9648502999917,533.9791526999325,534.9789966000244,534.9789966000244,534.9789966000244,534.9789966000244,534.9789966000244,535.9788419000106,535.9788419000106,536.4800114999525,v,1,0.4972815999062732,None,JC,001,2023-10-15_14h53.28.531,tutorial4,2023.2.2,59.82775590252981,2023-10-15 14h53.41.261315 +0530,
-150,z,,,,,5,0,20,3,536.4951997000026,,536.4814622999402,536.4951997000026,537.4950032000197,537.4950032000197,537.4950032000197,537.4950032000197,537.4950032000197,538.4947350999573,538.4947350999573,538.8623929999303,z,1,0.3592621999559924,None,JC,001,2023-10-15_14h53.28.531,tutorial4,2023.2.2,59.82775590252981,2023-10-15 14h53.41.261315 +0530,
50,c,,,,,5,1,21,2,538.8779209000058,,538.8636257000035,538.8779209000058,539.8774809000315,539.8774809000315,539.8774809000315,539.8774809000315,539.8774809000315,540.8773209999781,540.8773209999781,541.5449611999793,c,1,0.6622376999584958,None,JC,001,2023-10-15_14h53.28.531,tutorial4,2023.2.2,59.82775590252981,2023-10-15 14h53.41.261315 +0530,
150,v,,,,,5,2,22,1,541.5606284999521,,541.5463258000091,541.5606284999521,542.560363000026,542.560363000026,542.560363000026,542.560363000026,542.560363000026,543.5599678000435,543.5599678000435,544.1609528999543,v,1,0.5879168999381363,None,JC,001,2023-10-15_14h53.28.531,tutorial4,2023.2.2,59.82775590252981,2023-10-15 14h53.41.261315 +0530,
150,v,,,,,5,3,23,1,544.1767439999385,,544.1621533000143,544.1767439999385,545.1772016999312,545.1772016999312,545.1772016999312,545.1772016999312,545.1772016999312,546.1760262999451,546.1760262999451,546.6778361999895,v,1,0.4976329000201076,None,JC,001,2023-10-15_14h53.28.531,tutorial4,2023.2.2,59.82775590252981,2023-10-15 14h53.41.261315 +0530,
150,v,,,,,6,0,24,1,546.6927079999587,,546.6800236999989,546.6927079999587,547.6923446999863,547.6923446999863,547.6923446999863,547.6923446999863,547.6923446999863,548.6919706999324,548.6919706999324,549.2427905999357,v,1,0.5429968000389636,None,JC,001,2023-10-15_14h53.28.531,tutorial4,2023.2.2,59.82775590252981,2023-10-15 14h53.41.261315 +0530,
-50,x,,,,,6,1,25,0,549.2584075999912,,549.2439812000375,549.2584075999912,550.2581865999382,550.2581865999382,550.2581865999382,550.2581865999382,550.2581865999382,551.2581504000118,551.2581504000118,551.959556399961,x,1,0.6853884999873117,None,JC,001,2023-10-15_14h53.28.531,tutorial4,2023.2.2,59.82775590252981,2023-10-15 14h53.41.261315 +0530,
-150,z,,,,,6,2,26,3,551.9744360999903,,551.96175519994,551.9744360999903,552.9741314999992,552.9741314999992,552.9741314999992,552.9741314999992,552.9741314999992,553.9738324999344,553.9738324999344,554.5247260000324,z,1,0.5355136999860406,None,JC,001,2023-10-15_14h53.28.531,tutorial4,2023.2.2,59.82775590252981,2023-10-15 14h53.41.261315 +0530,
150,v,,,,,6,3,27,1,554.5403624000028,,554.526038800017,554.5403624000028,555.5400781999342,555.5400781999342,555.5400781999342,555.5400781999342,555.5400781999342,556.5397581999423,556.5397581999423,557.0409054999473,v,1,0.4883665000088513,None,JC,001,2023-10-15_14h53.28.531,tutorial4,2023.2.2,59.82775590252981,2023-10-15 14h53.41.261315 +0530,
50,c,,,,,7,0,28,2,557.0562693999382,,557.0422238999745,557.0562693999382,558.055928900023,558.055928900023,558.055928900023,558.055928900023,558.055928900023,559.0558092000429,559.0558092000429,559.7734656999819,c,1,0.7034721000818536,None,JC,001,2023-10-15_14h53.28.531,tutorial4,2023.2.2,59.82775590252981,2023-10-15 14h53.41.261315 +0530,
50,c,,,,,7,1,29,2,559.7890017000027,,559.7750435000053,559.7890017000027,560.788600299973,560.788600299973,560.788600299973,560.788600299973,560.788600299973,561.78870429995,561.78870429995,562.2561222999357,v,0,0.4648676000069827,None,JC,001,2023-10-15_14h53.28.531,tutorial4,2023.2.2,59.82775590252981,2023-10-15 14h53.41.261315 +0530,
-50,x,,,,,7,2,30,0,562.2716665000189,,562.2574948000256,562.2716665000189,563.2712976000039,563.2712976000039,563.2712976000039,563.2712976000039,563.2712976000039,564.2715368999634,564.2715368999634,565.1551589999581,x,1,0.8688232999993488,None,JC,001,2023-10-15_14h53.28.531,tutorial4,2023.2.2,59.82775590252981,2023-10-15 14h53.41.261315 +0530,
-50,x,,,,,7,3,31,0,565.1708731999388,,565.1564354000147,565.1708731999388,566.1714893999742,566.1714893999742,566.1714893999742,566.1714893999742,566.1714893999742,567.1703012000071,567.1703012000071,567.8043516000034,x,1,0.6225566000211984,None,JC,001,2023-10-15_14h53.28.531,tutorial4,2023.2.2,59.82775590252981,2023-10-15 14h53.41.261315 +0530,
-50,x,,,,,8,0,32,0,567.8200205999892,,567.80562619993,567.8200205999892,568.8199017000152,568.8199017000152,568.8199017000152,568.8199017000152,568.8199017000152,569.8193854000419,569.8193854000419,570.4871428000042,x,1,0.6562619999749586,None,JC,001,2023-10-15_14h53.28.531,tutorial4,2023.2.2,59.82775590252981,2023-10-15 14h53.41.261315 +0530,
50,c,,,,,8,1,33,2,570.5027517999988,,570.488371699932,570.5027517999988,571.5024551999522,571.5024551999522,571.5024551999522,571.5024551999522,571.5024551999522,572.5024559999583,572.5024559999583,573.0866856999928,c,1,0.5703444000100717,None,JC,001,2023-10-15_14h53.28.531,tutorial4,2023.2.2,59.82775590252981,2023-10-15 14h53.41.261315 +0530,
-150,z,,,,,8,2,34,3,573.1019993999507,,573.0882829999318,573.1019993999507,574.1019001000095,574.1019001000095,574.1019001000095,574.1019001000095,574.1019001000095,575.1016463999404,575.1016463999404,575.868716500001,z,1,0.7501716000260785,None,JC,001,2023-10-15_14h53.28.531,tutorial4,2023.2.2,59.82775590252981,2023-10-15 14h53.41.261315 +0530,
-150,z,,,,,8,3,35,3,575.8843976999633,,575.8700809000293,575.8843976999633,576.8844054000219,576.8844054000219,576.8844054000219,576.8844054000219,576.8844054000219,577.8841075999662,577.8841075999662,578.4681505999761,z,1,0.5815390000352636,None,JC,001,2023-10-15_14h53.28.531,tutorial4,2023.2.2,59.82775590252981,2023-10-15 14h53.41.261315 +0530,
50,c,,,,,9,0,36,2,578.4838505999651,,578.4694744999288,578.4838505999651,579.4837086999323,579.4837086999323,579.4837086999323,579.4837086999323,579.4837086999323,580.4833711000392,580.4833711000392,581.5341355999699,c,1,1.0439543999964371,None,JC,001,2023-10-15_14h53.28.531,tutorial4,2023.2.2,59.82775590252981,2023-10-15 14h53.41.261315 +0530,
150,v,,,,,9,1,37,1,581.5496840999695,,581.5355207000393,581.5496840999695,582.5505783000262,582.5505783000262,582.5505783000262,582.5505783000262,582.5505783000262,583.5488296999829,583.5488296999829,584.5003891999368,v,1,0.9424258000217378,None,JC,001,2023-10-15_14h53.28.531,tutorial4,2023.2.2,59.82775590252981,2023-10-15 14h53.41.261315 +0530,
-50,x,,,,,9,2,38,0,584.5155464999843,,584.5018152999692,584.5155464999843,585.5151649999898,585.5151649999898,585.5151649999898,585.5151649999898,585.5151649999898,586.5152428000001,586.5152428000001,587.2161046999972,x,1,0.6927481000311673,None,JC,001,2023-10-15_14h53.28.531,tutorial4,2023.2.2,59.82775590252981,2023-10-15 14h53.41.261315 +0530,
50,c,,,,,9,3,39,2,587.2314989999868,,587.2177834999748,587.2314989999868,588.2314347999636,588.2314347999636,588.2314347999636,588.2314347999636,588.2314347999636,589.2310140000191,589.2310140000191,590.0155112999491,c,1,0.7760482999728993,None,JC,001,2023-10-15_14h53.28.531,tutorial4,2023.2.2,59.82775590252981,2023-10-15 14h53.41.261315 +0530,
150,v,,,,,10,0,40,1,590.0309407999739,,590.017324400018,590.0309407999739,591.0305336000165,591.0305336000165,591.0305336000165,591.0305336000165,591.0305336000165,592.0303129999666,592.0303129999666,592.847769999993,v,1,0.8068638000404462,None,JC,001,2023-10-15_14h53.28.531,tutorial4,2023.2.2,59.82775590252981,2023-10-15 14h53.41.261315 +0530,
150,v,,,,,10,1,41,1,592.8633541000308,,592.849254700006,592.8633541000308,593.863027799991,593.863027799991,593.863027799991,593.863027799991,593.863027799991,594.8627930999501,594.8627930999501,595.6304535999661,v,1,0.7530928000342101,None,JC,001,2023-10-15_14h53.28.531,tutorial4,2023.2.2,59.82775590252981,2023-10-15 14h53.41.261315 +0530,
150,v,,,,,10,2,42,1,595.645944799995,,595.6317851999775,595.645944799995,596.6457867999561,596.6457867999561,596.6457867999561,596.6457867999561,596.6457867999561,597.6453899999615,597.6453899999615,598.1469528999878,v,1,0.4903596999356523,None,JC,001,2023-10-15_14h53.28.531,tutorial4,2023.2.2,59.82775590252981,2023-10-15 14h53.41.261315 +0530,
50,c,,,,,10,3,43,2,598.1617351999739,,598.1493574000197,598.1617351999739,599.1614887999604,599.1614887999604,599.1614887999604,599.1614887999604,599.1614887999604,600.1615470999386,600.1615470999386,600.9959851999301,c,1,0.8328888999531046,None,JC,001,2023-10-15_14h53.28.531,tutorial4,2023.2.2,59.82775590252981,2023-10-15 14h53.41.261315 +0530,
-50,x,,,,,11,0,44,0,601.0109767999966,,600.997508600005,601.0109767999966,602.0111234999495,602.0111234999495,602.0111234999495,602.0111234999495,602.0111234999495,603.0105908999685,603.0105908999685,603.6779860999668,x,1,0.6564393999287859,None,JC,001,2023-10-15_14h53.28.531,tutorial4,2023.2.2,59.82775590252981,2023-10-15 14h53.41.261315 +0530,
-150,z,,,,,11,1,45,3,603.6935459999368,,603.6792495000409,603.6935459999368,604.6933314999333,604.6933314999333,604.6933314999333,604.6933314999333,604.6933314999333,605.6933190999553,605.6933190999553,606.3444292999338,z,1,0.6491075999801978,None,JC,001,2023-10-15_14h53.28.531,tutorial4,2023.2.2,59.82775590252981,2023-10-15 14h53.41.261315 +0530,
-150,z,,,,,11,2,46,3,606.3594528000103,,606.3460346999345,606.3594528000103,607.3592179999687,607.3592179999687,607.3592179999687,607.3592179999687,607.3592179999687,608.3592606999446,608.3592606999446,608.8938162999693,z,1,0.5209549000719562,None,JC,001,2023-10-15_14h53.28.531,tutorial4,2023.2.2,59.82775590252981,2023-10-15 14h53.41.261315 +0530,
-50,x,,,,,11,3,47,0,608.9089743000222,,608.8957290999824,608.9089743000222,609.9090574999573,609.9090574999573,609.9090574999573,609.9090574999573,609.9090574999573,610.9082980999956,610.9082980999956,611.5260194999864,x,1,0.6123572000069544,None,JC,001,2023-10-15_14h53.28.531,tutorial4,2023.2.2,59.82775590252981,2023-10-15 14h53.41.261315 +0530,
-150,z,,,,,12,0,48,3,611.5415702000028,,611.5275853000348,611.5415702000028,612.5418182000285,612.5418182000285,612.5418182000285,612.5418182000285,612.5418182000285,613.5410695000319,613.5410695000319,614.2754392999923,z,1,0.7290672000963241,None,JC,001,2023-10-15_14h53.28.531,tutorial4,2023.2.2,59.82775590252981,2023-10-15 14h53.41.261315 +0530,
-150,z,,,,,12,1,49,3,614.2910080000293,,614.2768370000413,614.2910080000293,615.2907407999737,615.2907407999737,615.2907407999737,615.2907407999737,615.2907407999737,616.2902754000388,616.2902754000388,617.8581611999543,z,1,1.5639775999588892,None,JC,001,2023-10-15_14h53.28.531,tutorial4,2023.2.2,59.82775590252981,2023-10-15 14h53.41.261315 +0530,
50,c,,,,,12,2,50,2,617.8731012999779,,617.8600652000168,617.8731012999779,618.8728336000349,618.8728336000349,618.8728336000349,618.8728336000349,618.8728336000349,619.8726987999398,619.8726987999398,621.0071236999938,c,1,1.1238681999966502,None,JC,001,2023-10-15_14h53.28.531,tutorial4,2023.2.2,59.82775590252981,2023-10-15 14h53.41.261315 +0530,
-150,z,,,,,12,3,51,3,621.022481199936,,621.0088111000368,621.022481199936,622.0220790000167,622.0220790000167,622.0220790000167,622.0220790000167,622.0220790000167,623.0216139999684,623.0216139999684,623.673045399948,z,1,0.6396509000333026,None,JC,001,2023-10-15_14h53.28.531,tutorial4,2023.2.2,59.82775590252981,2023-10-15 14h53.41.261315 +0530,
150,v,,,,,13,0,52,1,623.6882688000333,,623.6746158000315,623.6882688000333,624.6879483000375,624.6879483000375,624.6879483000375,624.6879483000375,624.6879483000375,625.6876074000029,625.6876074000029,626.222386599984,v,1,0.5286583999404684,None,JC,001,2023-10-15_14h53.28.531,tutorial4,2023.2.2,59.82775590252981,2023-10-15 14h53.41.261315 +0530,
150,v,,,,,13,1,53,1,626.2375956999604,,626.223994400003,626.2375956999604,627.2372253999347,627.2372253999347,627.2372253999347,627.2372253999347,627.2372253999347,628.23710509995,628.23710509995,628.8051405999577,v,1,0.5521053000120446,None,JC,001,2023-10-15_14h53.28.531,tutorial4,2023.2.2,59.82775590252981,2023-10-15 14h53.41.261315 +0530,
50,c,,,,,13,2,54,2,628.8199948000256,,628.8071604999714,628.8199948000256,629.8199702999555,629.8199702999555,629.8199702999555,629.8199702999555,629.8199702999555,630.8197228999343,630.8197228999343,631.3541460999986,c,1,0.5330982999876142,None,JC,001,2023-10-15_14h53.28.531,tutorial4,2023.2.2,59.82775590252981,2023-10-15 14h53.41.261315 +0530,
-50,x,,,,,13,3,55,0,631.3694169999799,,631.3553712000139,631.3694169999799,632.3691423999844,632.3691423999844,632.3691423999844,632.3691423999844,632.3691423999844,633.3689519999316,633.3689519999316,634.3368499999633,x,1,0.9657346999738365,None,JC,001,2023-10-15_14h53.28.531,tutorial4,2023.2.2,59.82775590252981,2023-10-15 14h53.41.261315 +0530,
150,v,,,,,14,0,56,1,634.3523779000388,,634.3385835000081,634.3523779000388,635.3517826999305,635.3517826999305,635.3517826999305,635.3517826999305,635.3517826999305,636.3514459999278,636.3514459999278,637.0354919999372,v,1,0.6675769999856129,None,JC,001,2023-10-15_14h53.28.531,tutorial4,2023.2.2,59.82775590252981,2023-10-15 14h53.41.261315 +0530,
50,c,,,,,14,1,57,2,637.0512770999921,,637.036815600004,637.0512770999921,638.050981599954,638.050981599954,638.050981599954,638.050981599954,638.050981599954,639.0505524999462,639.0505524999462,639.634970300016,c,1,0.5706048998981714,None,JC,001,2023-10-15_14h53.28.531,tutorial4,2023.2.2,59.82775590252981,2023-10-15 14h53.41.261315 +0530,
150,v,,,,,14,2,58,1,639.6505229999311,,639.6363434999948,639.6505229999311,640.6506530999904,640.6506530999904,640.6506530999904,640.6506530999904,640.6506530999904,641.6500218999572,641.6500218999572,642.2681363000302,v,1,0.6142860000254586,None,JC,001,2023-10-15_14h53.28.531,tutorial4,2023.2.2,59.82775590252981,2023-10-15 14h53.41.261315 +0530,
-150,z,,,,,14,3,59,3,642.283095599967,,642.2698415999766,642.283095599967,643.282764500007,643.282764500007,643.282764500007,643.282764500007,643.282764500007,644.2832929999568,644.2832929999568,644.9833593999501,z,1,0.6910885000834242,None,JC,001,2023-10-15_14h53.28.531,tutorial4,2023.2.2,59.82775590252981,2023-10-15 14h53.41.261315 +0530,
150,v,,,,,15,0,60,1,644.9990829000017,,644.9847453000257,644.9990829000017,645.998787599965,645.998787599965,645.998787599965,645.998787599965,645.998787599965,646.9986182999564,646.9986182999564,647.6826885000337,v,1,0.681614900007844,None,JC,001,2023-10-15_14h53.28.531,tutorial4,2023.2.2,59.82775590252981,2023-10-15 14h53.41.261315 +0530,
50,c,,,,,15,1,61,2,647.6986030000262,,647.6841543000191,647.6986030000262,648.6980805000057,648.6980805000057,648.6980805000057,648.6980805000057,648.6980805000057,649.6981017999351,649.6981017999351,650.4986508999718,c,1,0.7976127000292763,None,JC,001,2023-10-15_14h53.28.531,tutorial4,2023.2.2,59.82775590252981,2023-10-15 14h53.41.261315 +0530,
50,c,,,,,15,2,62,2,650.514227299951,,650.5000387999462,650.514227299951,651.5140217000153,651.5140217000153,651.5140217000153,651.5140217000153,651.5140217000153,652.5137644000351,652.5137644000351,653.2486909000436,c,1,0.7246170000871643,None,JC,001,2023-10-15_14h53.28.531,tutorial4,2023.2.2,59.82775590252981,2023-10-15 14h53.41.261315 +0530,
50,c,,,,,15,3,63,2,653.2638288999442,,653.2512650999706,653.2638288999442,654.2629982000217,654.2629982000217,654.2629982000217,654.2629982000217,654.2629982000217,655.2629392000381,655.2629392000381,655.9806126999902,c,1,0.7099522000644356,None,JC,001,2023-10-15_14h53.28.531,tutorial4,2023.2.2,59.82775590252981,2023-10-15 14h53.41.261315 +0530,
-150,z,,,,,16,0,64,3,655.9962787999539,,655.982152499957,655.9962787999539,656.9960336999502,656.9960336999502,656.9960336999502,656.9960336999502,656.9960336999502,657.9955538000213,657.9955538000213,658.6298142999876,z,1,0.6222613999852911,None,JC,001,2023-10-15_14h53.28.531,tutorial4,2023.2.2,59.82775590252981,2023-10-15 14h53.41.261315 +0530,
50,c,,,,,16,1,65,2,658.6453327999916,,658.6313984999433,658.6453327999916,659.645236399956,659.645236399956,659.645236399956,659.645236399956,659.645236399956,660.6449686000124,660.6449686000124,661.2303265000228,c,1,0.5725520000560209,None,JC,001,2023-10-15_14h53.28.531,tutorial4,2023.2.2,59.82775590252981,2023-10-15 14h53.41.261315 +0530,
150,v,,,,,16,2,66,1,661.2444722999353,,661.2328279999783,661.2444722999353,662.2444108999334,662.2444108999334,662.2444108999334,662.2444108999334,662.2444108999334,663.2442379000131,663.2442379000131,664.0285610000137,v,1,0.7794663000386208,None,JC,001,2023-10-15_14h53.28.531,tutorial4,2023.2.2,59.82775590252981,2023-10-15 14h53.41.261315 +0530,
-50,x,,,,,16,3,67,0,664.0438886999618,,664.0301694000373,664.0438886999618,665.0438470999943,665.0438470999943,665.0438470999943,665.0438470999943,665.0438470999943,666.043424100033,666.043424100033,666.5950630999869,x,1,0.5429777998942882,None,JC,001,2023-10-15_14h53.28.531,tutorial4,2023.2.2,59.82775590252981,2023-10-15 14h53.41.261315 +0530,
50,c,,,,,17,0,68,2,666.6101110000163,,666.5971239999635,666.6101110000163,667.609608400031,667.609608400031,667.609608400031,667.609608400031,667.609608400031,668.6094595999457,668.6094595999457,669.6267843999667,c,1,1.0148537999484688,None,JC,001,2023-10-15_14h53.28.531,tutorial4,2023.2.2,59.82775590252981,2023-10-15 14h53.41.261315 +0530,
-150,z,,,,,17,1,69,3,669.6426074999617,,669.6280146000208,669.6426074999617,670.6423939999659,670.6423939999659,670.6423939999659,670.6423939999659,670.6423939999659,671.6420861999504,671.6420861999504,672.4431170999305,z,1,0.785096799954772,None,JC,001,2023-10-15_14h53.28.531,tutorial4,2023.2.2,59.82775590252981,2023-10-15 14h53.41.261315 +0530,
-50,x,,,,,17,2,70,0,672.4582091999473,,672.4450672999956,672.4582091999473,673.4584432999836,673.4584432999836,673.4584432999836,673.4584432999836,673.4584432999836,674.4576928999741,674.4576928999741,674.9585785999661,x,1,0.48447290004696697,None,JC,001,2023-10-15_14h53.28.531,tutorial4,2023.2.2,59.82775590252981,2023-10-15 14h53.41.261315 +0530,
-50,x,,,,,17,3,71,0,674.974250899977,,674.9599678999512,674.974250899977,675.9740109000122,675.9740109000122,675.9740109000122,675.9740109000122,675.9740109000122,676.9737039000029,676.9737039000029,678.3905148999766,x,1,1.4136658000061288,None,JC,001,2023-10-15_14h53.28.531,tutorial4,2023.2.2,59.82775590252981,2023-10-15 14h53.41.261315 +0530,
-50,x,,,,,18,0,72,0,678.4064074000344,,678.3912319999654,678.4064074000344,679.4064826000249,679.4064826000249,679.4064826000249,679.4064826000249,679.4064826000249,680.4061253999826,680.4061253999826,680.840147000039,x,1,0.42050989996641874,None,JC,001,2023-10-15_14h53.28.531,tutorial4,2023.2.2,59.82775590252981,2023-10-15 14h53.41.261315 +0530,
-50,x,,,,,18,1,73,0,680.8557340999832,,680.84135100001,680.8557340999832,681.8556391999591,681.8556391999591,681.8556391999591,681.8556391999591,681.8556391999591,682.8556733999867,682.8556733999867,683.3899811999872,x,1,0.5195991999935359,None,JC,001,2023-10-15_14h53.28.531,tutorial4,2023.2.2,59.82775590252981,2023-10-15 14h53.41.261315 +0530,
-50,x,,,,,18,2,74,0,683.4052885000128,,683.391376900021,683.4052885000128,684.4053428999614,684.4053428999614,684.4053428999614,684.4053428999614,684.4053428999614,685.4050824999576,685.4050824999576,685.8725149999373,x,1,0.46258189994841814,None,JC,001,2023-10-15_14h53.28.531,tutorial4,2023.2.2,59.82775590252981,2023-10-15 14h53.41.261315 +0530,
150,v,,,,,18,3,75,1,685.8882243999979,,685.8741277999943,685.8882243999979,686.8877577999374,686.8877577999374,686.8877577999374,686.8877577999374,686.8877577999374,687.8874048999278,687.8874048999278,688.3723971999716,v,1,0.472641900065355,None,JC,001,2023-10-15_14h53.28.531,tutorial4,2023.2.2,59.82775590252981,2023-10-15 14h53.41.261315 +0530,
-150,z,,,,,19,0,76,3,688.3875314999605,,688.3741881999886,688.3875314999605,689.3869195999578,689.3869195999578,689.3869195999578,689.3869195999578,689.3869195999578,690.3867944999365,690.3867944999365,690.9379557999782,z,1,0.5367208999814466,None,JC,001,2023-10-15_14h53.28.531,tutorial4,2023.2.2,59.82775590252981,2023-10-15 14h53.41.261315 +0530,
-150,z,,,,,19,1,77,3,690.9532055000309,,690.939769599936,690.9532055000309,691.9533531999914,691.9533531999914,691.9533531999914,691.9533531999914,691.9533531999914,692.9529563999968,692.9529563999968,693.4371671000263,z,1,0.46740219998173416,None,JC,001,2023-10-15_14h53.28.531,tutorial4,2023.2.2,59.82775590252981,2023-10-15 14h53.41.261315 +0530,
-150,z,,,,,19,2,78,3,693.4526835000142,,693.4383504999569,693.4526835000142,694.4522890000371,694.4522890000371,694.4522890000371,694.4522890000371,694.4522890000371,695.452272900031,695.452272900031,695.953226899961,z,1,0.4982728000031784,None,JC,001,2023-10-15_14h53.28.531,tutorial4,2023.2.2,59.82775590252981,2023-10-15 14h53.41.261315 +0530,
150,v,,,,,19,3,79,1,695.9687263999367,,695.9546138999285,695.9687263999367,696.9681511999806,696.9681511999806,696.9681511999806,696.9681511999806,696.9681511999806,697.9680098999524,697.9680098999524,698.5523081000429,v,1,0.580118199926801,None,JC,001,2023-10-15_14h53.28.531,tutorial4,2023.2.2,59.82775590252981,2023-10-15 14h53.41.261315 +0530,
-150,z,,,,,20,0,80,3,698.5679965999443,,698.5536827000324,698.5679965999443,699.5676015999634,699.5676015999634,699.5676015999634,699.5676015999634,699.5676015999634,700.5674665999832,700.5674665999832,701.0015730999876,z,1,0.4293002999620512,None,JC,001,2023-10-15_14h53.28.531,tutorial4,2023.2.2,59.82775590252981,2023-10-15 14h53.41.261315 +0530,
-50,x,,,,,20,1,81,0,701.0167201999575,,701.0026901999954,701.0167201999575,702.0171290999278,702.0171290999278,702.0171290999278,702.0171290999278,702.0171290999278,703.0165646999376,703.0165646999376,703.8004124999279,x,1,0.7718143999809399,None,JC,001,2023-10-15_14h53.28.531,tutorial4,2023.2.2,59.82775590252981,2023-10-15 14h53.41.261315 +0530,
